study_id,id,ses,taskCondition,Condition,Salience,Direction,DirectionLabel,testTrials.thisN,level,Correct,Accuracy,Response,Arousal,Confidence,TestTrial.started,TestTrial.stopped
5,10018,ses1,lowSalienceAcc,breath,Low,Faster,Acc,0,0.274552733423134,right,0,up,2,4,996.339438299998,1010.0928349999
5,10018,ses1,lowSalienceDec,breath,Low,Slower,Dec,1,0.168051238314836,left,1,left,2,4,1013.11593169998,1030.48036559997
5,10018,ses1,highSalienceAcc,breath,High,Faster,Acc,2,0.274552733423134,right,1,right,2,4,1033.55362239992,1047.38122969994
5,10018,ses1,lowSalienceDec,breath,Low,Slower,Dec,3,0.168051238314836,left,1,left,1,4,1050.30861069995,1067.65676599997
5,10018,ses1,highSalienceDec,breath,High,Slower,Dec,4,0.168051238314836,left,0,up,1,1,1072.39321849996,1089.76277509995
5,10018,ses1,highSalienceDec,breath,High,Slower,Dec,5,0.168051238314836,left,0,right,2,3,1096.83546219999,1114.23313239997
5,10018,ses1,lowSalienceAcc,breath,Low,Faster,Acc,6,0.274552733423134,right,1,right,2,4,1118.15737779997,1131.91791590001
5,10018,ses1,highSalienceAcc,breath,High,Faster,Acc,7,0.274552733423134,right,1,right,2,3,1136.7792795999,1150.60406879999
5,10018,ses2,lowSalienceDec,breath,Low,Slower,Dec,0,0.0465871998759932,left,1,left,2,3,837.184942999971,853.587487000041
5,10018,ses2,lowSalienceAcc,breath,Low,Faster,Acc,1,0.32698136122898,right,1,right,2,4,856.0598857,869.370309400023
5,10018,ses2,highSalienceAcc,breath,High,Faster,Acc,2,0.32698136122898,right,1,right,2,5,872.426425599959,885.837096499978
5,10018,ses2,highSalienceDec,breath,High,Slower,Dec,3,0.0465871998759932,left,0,up,2,3,889.310595800052,905.691203700029
5,10018,ses2,highSalienceDec,breath,High,Slower,Dec,4,0.0465871998759932,left,1,left,2,4,909.719885500032,926.100331800058
5,10018,ses2,lowSalienceDec,breath,Low,Slower,Dec,5,0.0465871998759932,left,0,right,2,1,929.570810000063,945.970624199952
5,10018,ses2,highSalienceAcc,breath,High,Faster,Acc,6,0.32698136122898,right,1,right,2,6,957.230703399982,970.641291299951
5,10018,ses2,lowSalienceAcc,breath,Low,Faster,Acc,7,0.32698136122898,right,0,up,2,2,973.964686600026,987.291735499981
5,10075,ses1,highSalienceDec,breath,High,Slower,Dec,0,0.686246448298897,left,0,up,2,5,998.652000800241,1020.17382810032
5,10075,ses1,highSalienceAcc,breath,High,Faster,Acc,1,0.33628218299193,right,1,right,3,5,1025.94816370029,1039.29354340024
5,10075,ses1,lowSalienceAcc,breath,Low,Faster,Acc,2,0.33628218299193,right,0,up,2,3,1052.80944510037,1066.03753560036
5,10075,ses1,highSalienceDec,breath,High,Slower,Dec,3,0.686246448298897,left,0,up,2,4,1073.70168590033,1095.22252970003
5,10075,ses1,lowSalienceAcc,breath,Low,Faster,Acc,4,0.33628218299193,right,0,up,2,3,1102.44700499997,1115.6769592003
5,10075,ses1,lowSalienceDec,breath,Low,Slower,Dec,5,0.686246448298897,left,1,left,2,4,1120.34877640009,1141.55357760005
5,10075,ses1,highSalienceAcc,breath,High,Faster,Acc,6,0.33628218299193,right,1,right,3,3,1150.4928444,1163.83844620036
5,10075,ses1,lowSalienceDec,breath,Low,Slower,Dec,7,0.686246448298897,left,1,left,4,5,1175.5061292001,1196.71062970022
5,10078,ses1,highSalienceAcc,visual,High,Faster,Acc,0,0.229877166814694,right,1,right,3,5,874.11831190018,888.298136999831
5,10078,ses1,highSalienceDec,visual,High,Slower,Dec,1,0.523456712491594,left,1,left,2,5,892.456040599849,912.689772500191
5,10078,ses1,highSalienceAcc,visual,High,Faster,Acc,2,0.229877166814694,right,0,up,2,4,918.420464499854,932.615281499922
5,10078,ses1,lowSalienceAcc,visual,Low,Faster,Acc,3,0.229877166814694,right,1,right,2,4,944.049198199995,958.191763999872
5,10078,ses1,lowSalienceDec,visual,Low,Slower,Dec,4,0.523456712491594,left,1,left,3,4,963.716911199968,983.734814799856
5,10078,ses1,highSalienceDec,visual,High,Slower,Dec,5,0.523456712491594,left,0,up,2,4,986.002077800222,1006.21969190007
5,10078,ses1,lowSalienceAcc,visual,Low,Faster,Acc,6,0.229877166814694,right,0,up,3,3,1010.02761160024,1024.17179090017
5,10078,ses1,lowSalienceDec,visual,Low,Slower,Dec,7,0.523456712491594,left,0,up,3,4,1028.19607040007,1048.2297840002
5,10078,ses2,highSalienceDec,breath,High,Slower,Dec,0,0.65726867475275,left,1,left,2,5,851.288874100428,872.576993100345
5,10078,ses2,lowSalienceDec,breath,Low,Slower,Dec,1,0.65726867475275,left,1,left,2,5,874.802172300406,895.789075900335
5,10078,ses2,lowSalienceDec,breath,Low,Slower,Dec,2,0.65726867475275,left,0,up,2,4,898.173591500148,919.175080600195
5,10078,ses2,lowSalienceAcc,breath,Low,Faster,Acc,3,0.395624375547128,right,0,up,2,4,923.050779400393,935.730263700243
5,10078,ses2,highSalienceAcc,breath,High,Faster,Acc,4,0.395624375547128,right,1,right,2,5,940.469881300349,953.315132100135
5,10078,ses2,highSalienceAcc,breath,High,Faster,Acc,5,0.395624375547128,right,1,right,2,3,955.833140400238,968.692700700369
5,10078,ses2,highSalienceDec,breath,High,Slower,Dec,6,0.65726867475275,left,0,up,2,4,971.465510500129,992.750784700271
5,10078,ses2,lowSalienceAcc,breath,Low,Faster,Acc,7,0.395624375547128,right,1,right,2,3,997.978006600402,1010.6574814003
5,10135,ses1,lowSalienceAcc,visual,Low,Faster,Acc,0,0.404325774741294,right,1,right,3,5,927.689483299997,940.287907200007
5,10135,ses1,highSalienceAcc,visual,High,Faster,Acc,1,0.404325774741294,right,1,right,2,5,944.713753200005,957.504313700003
5,10135,ses1,lowSalienceDec,visual,Low,Slower,Dec,2,0.300219395837209,left,1,left,1,5,960.411659599995,978.761077999996
5,10135,ses1,highSalienceAcc,visual,High,Faster,Acc,3,0.404325774741294,right,1,right,2,5,983.484658600006,996.262371200006
5,10135,ses1,highSalienceDec,visual,High,Slower,Dec,4,0.300219395837209,left,1,left,1,5,1001.65345870001,1020.070204
5,10135,ses1,lowSalienceDec,visual,Low,Slower,Dec,5,0.300219395837209,left,0,up,1,1,1029.75072169999,1048.11588910001
5,10135,ses1,highSalienceDec,visual,High,Slower,Dec,6,0.300219395837209,left,0,up,2,4,1056.3112404,1074.7420123
5,10135,ses1,lowSalienceAcc,visual,Low,Faster,Acc,7,0.404325774741294,right,1,right,2,5,1081.8033634,1094.3971526
5,10135,ses2,highSalienceAcc,breath,High,Faster,Acc,0,0.302028555302269,right,1,right,3,5,876.700535700002,890.324066400004
5,10135,ses2,highSalienceAcc,breath,High,Faster,Acc,1,0.302028555302269,right,1,right,3,4,895.630613800007,909.243410499999
5,10135,ses2,lowSalienceAcc,breath,Low,Faster,Acc,2,0.302028555302269,right,0,up,3,5,912.948533300005,926.461342200011
5,10135,ses2,highSalienceDec,breath,High,Slower,Dec,3,0.362538278251467,left,1,left,2,5,929.581215300001,948.513812000005
5,10135,ses2,lowSalienceDec,breath,Low,Slower,Dec,4,0.362538278251467,left,0,up,2,4,952.27303560001,971.090630899998
5,10135,ses2,lowSalienceDec,breath,Low,Slower,Dec,5,0.362538278251467,left,1,left,2,4,975.378340800002,994.2097737
5,10135,ses2,highSalienceDec,breath,High,Slower,Dec,6,0.362538278251467,left,1,left,2,5,997.571206499997,1016.48743990001
5,10135,ses2,lowSalienceAcc,breath,Low,Faster,Acc,7,0.302028555302269,right,0,up,3,4,1020.14069080001,1033.66804270001
5,10207,ses1,highSalienceAcc,visual,High,Faster,Acc,0,0.327701857439023,right,1,right,3,3,1198.5449941,1211.956721
5,10207,ses1,highSalienceAcc,visual,High,Faster,Acc,1,0.327701857439023,right,0,up,3,4,1217.75287159998,1231.16441649999
5,10207,ses1,lowSalienceAcc,visual,Low,Faster,Acc,2,0.327701857439023,right,0,up,4,3,1235.57242059999,1248.8662358
5,10207,ses1,highSalienceDec,visual,High,Slower,Dec,3,0.550192510748444,left,1,left,3,4,1256.76026899999,1277.17860639998
5,10207,ses1,lowSalienceDec,visual,Low,Slower,Dec,4,0.550192510748444,left,1,left,3,3,1284.7914358,1305.02431019998
5,10207,ses1,highSalienceDec,visual,High,Slower,Dec,5,0.550192510748444,left,1,left,2,4,1312.3968324,1332.81459309999
5,10207,ses1,lowSalienceAcc,visual,Low,Faster,Acc,6,0.327701857439023,right,0,up,2,3,1337.67292069999,1350.96661489998
5,10207,ses1,lowSalienceDec,visual,Low,Slower,Dec,7,0.550192510748444,left,1,left,2,4,1362.2481499,1382.465631
5,10348,ses1,highSalienceAcc,visual,High,Faster,Acc,0,0.347651001461389,right,1,right,5,5,933.520124199917,946.770571399946
5,10348,ses1,highSalienceAcc,visual,High,Faster,Acc,1,0.347651001461389,right,1,right,6,5,951.693891600007,964.93937789998
5,10348,ses1,lowSalienceAcc,visual,Low,Faster,Acc,2,0.347651001461389,right,1,right,6,5,974.237550899968,987.350481099915
5,10348,ses1,highSalienceDec,visual,High,Slower,Dec,3,0.350456498776534,left,1,left,6,5,991.422782899928,1010.24087959994
5,10348,ses1,lowSalienceDec,visual,Low,Slower,Dec,4,0.350456498776534,left,1,left,6,5,1018.28306779999,1037.00183089997
5,10348,ses1,highSalienceDec,visual,High,Slower,Dec,5,0.350456498776534,left,0,up,6,5,1044.23911159998,1063.05700879998
5,10348,ses1,lowSalienceAcc,visual,Low,Faster,Acc,6,0.347651001461389,right,1,right,6,5,1070.98329819995,1084.09540410002
5,10348,ses1,lowSalienceDec,visual,Low,Slower,Dec,7,0.350456498776534,left,1,left,6,5,1087.75054929999,1106.48519809998
5,10348,ses2,highSalienceDec,breath,High,Slower,Dec,0,0.124447443547298,left,1,left,5,5,809.557305300026,826.571708200034
5,10348,ses2,lowSalienceDec,breath,Low,Slower,Dec,1,0.124447443547298,left,1,left,5,5,828.012554400018,845.028962700046
5,10348,ses2,highSalienceAcc,breath,High,Faster,Acc,2,0.283045068872778,right,0,up,5,6,847.328057600069,861.073919099988
5,10348,ses2,highSalienceDec,breath,High,Slower,Dec,3,0.124447443547298,left,0,up,5,5,863.68247270002,880.699090600014
5,10348,ses2,lowSalienceDec,breath,Low,Slower,Dec,4,0.124447443547298,left,0,right,5,5,885.671300200047,902.688507099985
5,10348,ses2,lowSalienceAcc,breath,Low,Faster,Acc,5,0.283045068872778,right,0,up,5,5,906.910359299975,920.590239500045
5,10348,ses2,highSalienceAcc,breath,High,Faster,Acc,6,0.283045068872778,right,1,right,5,5,923.410207499983,937.157007500064
5,10348,ses2,lowSalienceAcc,breath,Low,Faster,Acc,7,0.283045068872778,right,1,right,5,5,939.77828930004,953.457088900032
5,10393,ses1,highSalienceAcc,breath,High,Faster,Acc,0,0.405301498152391,right,1,right,6,6,962.362711600028,975.143071299884
5,10393,ses1,lowSalienceDec,breath,Low,Slower,Dec,1,0.696395445277701,left,0,up,6,5,978.900368799921,1000.16930379998
5,10393,ses1,highSalienceDec,breath,High,Slower,Dec,2,0.696395445277701,left,1,left,6,6,1006.61440309999,1028.21470779995
5,10393,ses1,lowSalienceAcc,breath,Low,Faster,Acc,3,0.405301498152391,right,0,up,6,5,1033.62578099989,1046.23330330011
5,10393,ses1,lowSalienceDec,breath,Low,Slower,Dec,4,0.696395445277701,left,0,up,6,4,1050.22410050011,1071.5084696
5,10393,ses1,highSalienceDec,breath,High,Slower,Dec,5,0.696395445277701,left,1,left,6,5,1078.25280299992,1099.8551417999
5,10393,ses1,lowSalienceAcc,breath,Low,Faster,Acc,6,0.405301498152391,right,0,up,6,6,1107.8042415001,1120.41393909999
5,10393,ses1,highSalienceAcc,breath,High,Faster,Acc,7,0.405301498152391,right,1,right,5,6,1127.87289449992,1140.66407359997
5,10393,ses2,highSalienceAcc,breath,High,Faster,Acc,0,0.26920954161927,right,1,right,5,5,830.594969900092,844.475422800053
5,10393,ses2,lowSalienceAcc,breath,Low,Faster,Acc,1,0.26920954161927,right,0,up,5,6,848.252611800097,862.047745899996
5,10393,ses2,lowSalienceAcc,breath,Low,Faster,Acc,2,0.26920954161927,right,0,up,5,6,865.100672000088,878.91114290012
5,10393,ses2,lowSalienceDec,breath,Low,Slower,Dec,3,0.336541211523291,left,0,up,5,3,882.000374100171,900.633623800008
5,10393,ses2,lowSalienceDec,breath,Low,Slower,Dec,4,0.336541211523291,left,0,up,5,6,906.476006800076,925.125615000026
5,10393,ses2,highSalienceAcc,breath,High,Faster,Acc,5,0.26920954161927,right,0,up,5,5,928.384696200024,942.26371960016
5,10393,ses2,highSalienceDec,breath,High,Slower,Dec,6,0.336541211523291,left,1,left,5,6,945.002021100139,963.7189619001
5,10393,ses2,highSalienceDec,breath,High,Slower,Dec,7,0.336541211523291,left,1,left,5,5,967.10782390018,985.825276100077
5,10543,ses1,highSalienceDec,breath,High,Slower,Dec,0,0.325855369585779,left,0,right,3,6,1136.0243582,1154.6469979
5,10543,ses1,lowSalienceAcc,breath,Low,Faster,Acc,1,0.358781924830001,right,1,right,3,6,1161.8599892,1174.8846633
5,10543,ses1,lowSalienceDec,breath,Low,Slower,Dec,2,0.325855369585779,left,1,left,3,5,1178.5487462,1197.1126225
5,10543,ses1,highSalienceAcc,breath,High,Faster,Acc,3,0.358781924830001,right,1,right,4,6,1203.4201175,1216.5776293
5,10543,ses1,highSalienceDec,breath,High,Slower,Dec,4,0.325855369585779,left,1,left,3,5,1219.9037847,1238.5337415
5,10543,ses1,highSalienceAcc,breath,High,Faster,Acc,5,0.358781924830001,right,1,right,4,6,1243.6921716,1256.8361418
5,10543,ses1,lowSalienceAcc,breath,Low,Faster,Acc,6,0.358781924830001,right,0,up,4,4,1260.32614,1273.3530337
5,10543,ses1,lowSalienceDec,breath,Low,Slower,Dec,7,0.325855369585779,left,1,left,3,6,1279.9464552,1298.5122868
5,10543,ses2,lowSalienceAcc,breath,Low,Faster,Acc,0,0.226020202274234,right,1,right,3,5,942.486551299999,956.6704971
5,10543,ses2,highSalienceDec,breath,High,Slower,Dec,1,0.485460575633749,left,1,left,3,6,959.229327999999,979.148464099999
5,10543,ses2,lowSalienceAcc,breath,Low,Faster,Acc,2,0.226020202274234,right,1,right,3,6,982.1832841,996.361412599999
5,10543,ses2,highSalienceDec,breath,High,Slower,Dec,3,0.485460575633749,left,1,left,3,6,1000.7213535,1020.6412693
5,10543,ses2,lowSalienceDec,breath,Low,Slower,Dec,4,0.485460575633749,left,0,up,3,6,1024.0766292,1043.8436369
5,10543,ses2,highSalienceAcc,breath,High,Faster,Acc,5,0.226020202274234,right,1,right,3,6,1048.5208984,1062.7347515
5,10543,ses2,lowSalienceDec,breath,Low,Slower,Dec,6,0.485460575633749,left,1,left,3,6,1065.4357284,1085.1863859
5,10543,ses2,highSalienceAcc,breath,High,Faster,Acc,7,0.226020202274234,right,0,up,3,5,1088.11157,1102.3254718
5,10711,ses1,lowSalienceDec,breath,Low,Slower,Dec,0,0.24038579746545,left,0,up,3,5,863.573105600022,881.476894400024
5,10711,ses1,highSalienceDec,breath,High,Slower,Dec,1,0.24038579746545,left,1,left,3,5,884.889179999998,902.854032700008
5,10711,ses1,lowSalienceAcc,breath,Low,Faster,Acc,2,0.392045373545295,right,1,right,3,5,906.006588999997,918.749564500002
5,10711,ses1,highSalienceAcc,breath,High,Faster,Acc,3,0.392045373545295,right,1,right,2,4,921.472318899992,934.348282399995
5,10711,ses1,highSalienceAcc,breath,High,Faster,Acc,4,0.392045373545295,right,1,right,3,5,936.857483500033,949.748029600014
5,10711,ses1,lowSalienceDec,breath,Low,Slower,Dec,5,0.24038579746545,left,1,left,2,4,953.088203300023,970.98686200002
5,10711,ses1,highSalienceDec,breath,High,Slower,Dec,6,0.24038579746545,left,0,up,3,3,973.692683300003,991.657571399992
5,10711,ses1,lowSalienceAcc,breath,Low,Faster,Acc,7,0.392045373545295,right,1,right,3,4,994.400095999998,1007.14093550004
5,10711,ses2,highSalienceDec,breath,High,Slower,Dec,0,0.354227945365628,left,0,up,3,4,830.360693799972,849.212772300001
5,10711,ses2,lowSalienceAcc,breath,Low,Faster,Acc,1,0.256850898423061,right,1,right,3,4,852.303043099993,866.230293200002
5,10711,ses2,highSalienceAcc,breath,High,Faster,Acc,2,0.256850898423061,right,1,right,3,4,869.070165599987,883.063463500002
5,10711,ses2,lowSalienceAcc,breath,Low,Faster,Acc,3,0.256850898423061,right,1,right,3,3,885.870073599974,899.781544899975
5,10711,ses2,highSalienceDec,breath,High,Slower,Dec,4,0.354227945365628,left,1,left,3,5,903.254974299984,922.121313599986
5,10711,ses2,lowSalienceDec,breath,Low,Slower,Dec,5,0.354227945365628,left,1,left,3,5,924.961111799988,943.743654899998
5,10711,ses2,highSalienceAcc,breath,High,Faster,Acc,6,0.256850898423061,right,1,right,3,4,947.734303399979,961.711508099979
5,10711,ses2,lowSalienceDec,breath,Low,Slower,Dec,7,0.354227945365628,left,0,up,3,4,963.684815799992,982.466156099981
5,10771,ses1,lowSalienceDec,visual,Low,Slower,Dec,0,0.572556020617334,left,1,left,2,4,941.370379499975,961.758518000017
5,10771,ses1,lowSalienceAcc,visual,Low,Faster,Acc,1,0.514963390842522,right,1,right,3,4,966.968667099951,978.575750099961
5,10771,ses1,highSalienceDec,visual,High,Slower,Dec,2,0.572556020617334,left,1,left,3,5,983.820411099936,1004.43575169996
5,10771,ses1,highSalienceAcc,visual,High,Faster,Acc,3,0.514963390842522,right,1,right,4,4,1008.89372629998,1020.81962730002
5,10771,ses1,lowSalienceAcc,visual,Low,Faster,Acc,4,0.514963390842522,right,1,right,4,4,1023.5923281,1035.18405809999
5,10771,ses1,highSalienceAcc,visual,High,Faster,Acc,5,0.514963390842522,right,0,up,3,5,1037.1229057,1049.04851659993
5,10771,ses1,highSalienceDec,visual,High,Slower,Dec,6,0.572556020617334,left,1,left,3,6,1052.18790949997,1072.80612540001
5,10771,ses1,lowSalienceDec,visual,Low,Slower,Dec,7,0.572556020617334,left,1,left,3,6,1075.86542689998,1096.24701159995
5,10771,ses2,highSalienceDec,breath,High,Slower,Dec,0,0.269333529090148,left,1,left,3,3,856.055459900061,874.244643100072
5,10771,ses2,highSalienceAcc,breath,High,Faster,Acc,1,0.249679386904226,right,0,left,3,2,875.39904560009,889.426755900029
5,10771,ses2,highSalienceAcc,breath,High,Faster,Acc,2,0.249679386904226,right,1,right,3,3,891.715887000086,905.743752300041
5,10771,ses2,lowSalienceAcc,breath,Low,Faster,Acc,3,0.249679386904226,right,1,right,3,4,907.767834900063,921.713792000082
5,10771,ses2,highSalienceDec,breath,High,Slower,Dec,4,0.269333529090148,left,1,left,5,5,924.182687000022,942.381645600079
5,10771,ses2,lowSalienceDec,breath,Low,Slower,Dec,5,0.269333529090148,left,0,up,3,1,946.538058500038,964.687659000047
5,10771,ses2,lowSalienceAcc,breath,Low,Faster,Acc,6,0.249679386904226,right,1,right,3,4,968.644145400031,982.606218700064
5,10771,ses2,lowSalienceDec,breath,Low,Slower,Dec,7,0.269333529090148,left,0,up,3,3,984.977604500018,1003.10948980006
5,10831,ses1,highSalienceDec,visual,High,Slower,Dec,0,0.533611168856187,left,1,left,4,5,851.148557599983,871.439249900053
5,10831,ses1,lowSalienceAcc,visual,Low,Faster,Acc,1,0.337954704264571,right,1,right,4,5,874.328899099957,887.55578220007
5,10831,ses1,lowSalienceDec,visual,Low,Slower,Dec,2,0.533611168856187,left,1,left,4,4,889.432403699961,909.532278000028
5,10831,ses1,highSalienceAcc,visual,High,Faster,Acc,3,0.337954704264571,right,1,right,4,5,913.735969100031,927.04529290006
5,10831,ses1,lowSalienceDec,visual,Low,Slower,Dec,4,0.533611168856187,left,1,left,4,6,929.30356879998,949.402678200044
5,10831,ses1,highSalienceAcc,visual,High,Faster,Acc,5,0.337954704264571,right,1,right,4,6,953.292589899967,966.620390000055
5,10831,ses1,lowSalienceAcc,visual,Low,Faster,Acc,6,0.337954704264571,right,1,right,4,5,969.726392299985,982.920826100046
5,10831,ses1,highSalienceDec,visual,High,Slower,Dec,7,0.533611168856187,left,1,left,4,6,984.725348200067,1005.01030750002
5,10831,ses2,lowSalienceAcc,breath,Low,Faster,Acc,0,0.219060638941032,right,1,right,4,4,786.801035500015,801.041214000084
5,10831,ses2,lowSalienceDec,breath,Low,Slower,Dec,1,0.262585065421384,left,0,up,4,2,803.794040200068,821.892561300076
5,10831,ses2,highSalienceDec,breath,High,Slower,Dec,2,0.262585065421384,left,0,up,4,5,825.416031100089,843.531401899992
5,10831,ses2,lowSalienceAcc,breath,Low,Faster,Acc,3,0.219060638941032,right,1,right,4,5,846.104380600038,860.347676299978
5,10831,ses2,lowSalienceDec,breath,Low,Slower,Dec,4,0.262585065421384,left,1,left,4,3,862.657300700084,880.740208900068
5,10831,ses2,highSalienceAcc,breath,High,Faster,Acc,5,0.219060638941032,right,1,right,4,6,886.395780700026,900.690456600045
5,10831,ses2,highSalienceDec,breath,High,Slower,Dec,6,0.262585065421384,left,1,left,4,6,903.649252700037,921.765924200066
5,10831,ses2,highSalienceAcc,breath,High,Faster,Acc,7,0.219060638941032,right,1,right,4,5,924.384764200076,938.679719300009
5,10873,ses1,lowSalienceAcc,visual,Low,Faster,Acc,0,0.218356583470844,right,0,up,2,5,903.733870200114,917.970772200031
5,10873,ses1,lowSalienceDec,visual,Low,Slower,Dec,1,0.522059762825081,left,1,left,2,5,922.331163099967,942.345990200061
5,10873,ses1,highSalienceDec,visual,High,Slower,Dec,2,0.522059762825081,left,1,left,2,4,945.555027500028,965.753574500093
5,10873,ses1,highSalienceAcc,visual,High,Faster,Acc,3,0.218356583470844,right,1,right,2,5,968.745929199969,983.037970799953
5,10873,ses1,lowSalienceDec,visual,Low,Slower,Dec,4,0.522059762825081,left,1,left,2,4,985.693909100024,1005.69447280001
5,10873,ses1,highSalienceAcc,visual,High,Faster,Acc,5,0.218356583470844,right,1,right,2,4,1008.4506967999,1022.74560109992
5,10873,ses1,highSalienceDec,visual,High,Slower,Dec,6,0.522059762825081,left,0,up,2,5,1026.772046,1046.97064459999
5,10873,ses1,lowSalienceAcc,visual,Low,Faster,Acc,7,0.218356583470844,right,1,right,2,4,1051.22809699993,1065.45641719992
5,10873,ses2,highSalienceAcc,breath,High,Faster,Acc,0,0.334843822832772,right,0,up,2,4,848.739863499999,862.096406899858
5,10873,ses2,highSalienceDec,breath,High,Slower,Dec,1,0.878745784622362,left,1,left,2,4,864.666848399909,887.722849099897
5,10873,ses2,highSalienceAcc,breath,High,Faster,Acc,2,0.334843822832772,right,0,left,3,3,889.656667300034,903.000646200031
5,10873,ses2,lowSalienceDec,breath,Low,Slower,Dec,3,0.878745784622362,left,0,up,3,2,907.127348100068,929.69975010003
5,10873,ses2,highSalienceDec,breath,High,Slower,Dec,4,0.878745784622362,left,0,up,3,3,932.033765899949,955.087500100024
5,10873,ses2,lowSalienceAcc,breath,Low,Faster,Acc,5,0.334843822832772,right,1,right,3,3,956.846503000008,970.074576699873
5,10873,ses2,lowSalienceAcc,breath,Low,Faster,Acc,6,0.334843822832772,right,1,right,2,5,971.393593000015,984.623014600016
5,10873,ses2,lowSalienceDec,breath,Low,Slower,Dec,7,0.878745784622362,left,0,up,2,5,987.207534400048,1009.79417969985
5,11176,ses1,lowSalienceAcc,breath,Low,Faster,Acc,0,0.491535602220442,right,0,up,3,3,833.775994200027,845.581469099969
5,11176,ses1,highSalienceAcc,breath,High,Faster,Acc,1,0.491535602220442,right,1,right,4,4,848.383371700067,860.475302000064
5,11176,ses1,lowSalienceDec,breath,Low,Slower,Dec,2,0.62165299938374,left,0,up,3,3,863.281519300072,884.016346799908
5,11176,ses1,lowSalienceAcc,breath,Low,Faster,Acc,3,0.491535602220442,right,1,right,4,3,891.060313399881,902.869119799929
5,11176,ses1,highSalienceDec,breath,High,Slower,Dec,4,0.62165299938374,left,0,up,3,4,906.026035199873,927.02726750006
5,11176,ses1,highSalienceDec,breath,High,Slower,Dec,5,0.62165299938374,left,1,left,4,5,935.275065300055,956.274003800005
5,11176,ses1,highSalienceAcc,breath,High,Faster,Acc,6,0.491535602220442,right,0,left,4,4,959.483287999872,971.573459099978
5,11176,ses1,lowSalienceDec,breath,Low,Slower,Dec,7,0.62165299938374,left,0,up,4,4,975.682975299889,996.415623199893
5,11176,ses2,lowSalienceAcc,breath,Low,Faster,Acc,0,0.329689926127517,right,0,up,3,5,943.624669900164,956.884953100001
5,11176,ses2,lowSalienceDec,breath,Low,Slower,Dec,1,0.875519603033964,left,0,up,2,4,959.157388200052,981.710621300153
5,11176,ses2,highSalienceAcc,breath,High,Faster,Acc,2,0.329689926127517,right,1,right,3,4,991.478390400065,1004.85612070002
5,11176,ses2,lowSalienceAcc,breath,Low,Faster,Acc,3,0.329689926127517,right,0,up,3,3,1007.60766800004,1020.88424420008
5,11176,ses2,highSalienceAcc,breath,High,Faster,Acc,4,0.329689926127517,right,0,left,3,3,1023.79084670008,1037.18447800004
5,11176,ses2,highSalienceDec,breath,High,Slower,Dec,5,0.875519603033964,left,1,left,3,3,1042.0117093001,1065.03477630019
5,11176,ses2,lowSalienceDec,breath,Low,Slower,Dec,6,0.875519603033964,left,0,up,3,3,1068.85840610019,1091.39510690002
5,11176,ses2,highSalienceDec,breath,High,Slower,Dec,7,0.875519603033964,left,0,up,3,3,1099.82127420022,1122.84430660005
5,11224,ses1,lowSalienceDec,breath,Low,Slower,Dec,0,0.342030809586729,left,0,up,3,3,1023.8118325,1042.4797808
5,11224,ses1,lowSalienceAcc,breath,Low,Faster,Acc,1,0.280815377270064,right,1,right,3,6,1048.20811689999,1061.904646
5,11224,ses1,highSalienceDec,breath,High,Slower,Dec,2,0.342030809586729,left,1,left,3,6,1065.70950249999,1084.47284429999
5,11224,ses1,lowSalienceAcc,breath,Low,Faster,Acc,3,0.280815377270064,right,1,right,3,6,1089.01274779999,1102.70820179999
5,11224,ses1,highSalienceAcc,breath,High,Faster,Acc,4,0.280815377270064,right,1,right,3,4,1107.16457349999,1120.9439957
5,11224,ses1,highSalienceDec,breath,High,Slower,Dec,5,0.342030809586729,left,1,left,2,5,1126.91808219999,1145.6692529
5,11224,ses1,lowSalienceDec,breath,Low,Slower,Dec,6,0.342030809586729,left,0,up,3,3,1149.27465569999,1167.94218629999
5,11224,ses1,highSalienceAcc,breath,High,Faster,Acc,7,0.280815377270064,right,1,right,3,5,1174.10010869999,1187.87938829999
5,11224,ses2,lowSalienceDec,breath,Low,Slower,Dec,0,0.35682919397801,left,0,up,2,4,892.464238799992,911.24773219999
5,11224,ses2,highSalienceAcc,breath,High,Faster,Acc,1,0.258701904991048,right,1,right,2,4,915.040608900003,928.987405599997
5,11224,ses2,highSalienceAcc,breath,High,Faster,Acc,2,0.258701904991048,right,1,right,3,6,934.157102199999,948.102278299993
5,11224,ses2,highSalienceDec,breath,High,Slower,Dec,3,0.35682919397801,left,1,left,2,5,951.424770600002,970.308736399995
5,11224,ses2,highSalienceDec,breath,High,Slower,Dec,4,0.35682919397801,left,1,left,2,6,974.21487489999,993.098806299997
5,11224,ses2,lowSalienceDec,breath,Low,Slower,Dec,5,0.35682919397801,left,0,up,2,4,996.074329399999,1014.8592162
5,11224,ses2,lowSalienceAcc,breath,Low,Faster,Acc,6,0.258701904991048,right,0,up,2,3,1018.07996279999,1031.9770254
5,11224,ses2,lowSalienceAcc,breath,Low,Faster,Acc,7,0.258701904991048,right,0,up,1,4,1035.83227,1049.7118357
5,11245,ses1,lowSalienceDec,breath,Low,Slower,Dec,0,0.25079805845806,left,1,left,2,5,1064.21919059998,1082.2144859999
5,11245,ses1,lowSalienceAcc,breath,Low,Faster,Acc,1,0.46355350117351,right,1,right,3,5,1090.24060279992,1102.31488339999
5,11245,ses1,highSalienceAcc,breath,High,Faster,Acc,2,0.46355350117351,right,1,right,3,5,1111.87781829992,1124.204149
5,11245,ses1,lowSalienceDec,breath,Low,Slower,Dec,3,0.25079805845806,left,1,left,3,5,1129.76192069997,1147.7451400999
5,11245,ses1,highSalienceDec,breath,High,Slower,Dec,4,0.25079805845806,left,0,up,3,5,1153.62084739993,1171.65308659989
5,11245,ses1,lowSalienceAcc,breath,Low,Faster,Acc,5,0.46355350117351,right,0,up,2,5,1177.8116150999,1189.87163179996
5,11245,ses1,highSalienceDec,breath,High,Slower,Dec,6,0.25079805845806,left,1,left,1,5,1201.12209379999,1219.15189009998
5,11245,ses1,highSalienceAcc,breath,High,Faster,Acc,7,0.46355350117351,right,1,right,3,5,1229.7825953,1242.09229839989
5,11245,ses2,highSalienceAcc,breath,High,Faster,Acc,0,0.427697414727595,right,1,right,4,5,1021.35722060001,1033.98072650004
5,11245,ses2,highSalienceAcc,breath,High,Faster,Acc,1,0.427697414727595,right,1,right,4,5,1039.11843120004,1051.74557300005
5,11245,ses2,lowSalienceDec,breath,Low,Slower,Dec,2,0.452651469872248,left,1,left,4,5,1056.35284850001,1075.87045170006
5,11245,ses2,lowSalienceAcc,breath,Low,Faster,Acc,3,0.427697414727595,right,0,up,4,5,1081.46532439999,1093.87600739999
5,11245,ses2,highSalienceDec,breath,High,Slower,Dec,4,0.452651469872248,left,1,left,4,6,1099.1313598,1118.79661309998
5,11245,ses2,lowSalienceAcc,breath,Low,Faster,Acc,5,0.427697414727595,right,0,up,4,5,1123.48864290002,1135.89891290001
5,11245,ses2,highSalienceDec,breath,High,Slower,Dec,6,0.452651469872248,left,1,left,4,5,1140.00703770004,1159.67342210002
5,11245,ses2,lowSalienceDec,breath,Low,Slower,Dec,7,0.452651469872248,left,1,left,4,5,1167.55125960009,1187.05177600007
5,11305,ses1,lowSalienceAcc,breath,Low,Faster,Acc,0,0.417807612706887,right,1,right,4,4,950.39238640001,962.8993759
5,11305,ses1,highSalienceAcc,breath,High,Faster,Acc,1,0.417807612706887,right,1,right,3,6,966.759481600006,979.449863300004
5,11305,ses1,lowSalienceAcc,breath,Low,Faster,Acc,2,0.417807612706887,right,0,up,3,5,985.389604800002,997.897423300004
5,11305,ses1,lowSalienceDec,breath,Low,Slower,Dec,3,0.540920863198312,left,1,left,3,6,1002.35934970001,1022.49431380001
5,11305,ses1,highSalienceAcc,breath,High,Faster,Acc,4,0.417807612706887,right,1,right,3,6,1025.71496950001,1038.40564500001
5,11305,ses1,highSalienceDec,breath,High,Slower,Dec,5,0.540920863198312,left,1,left,3,6,1041.7790063,1062.1302213
5,11305,ses1,lowSalienceDec,breath,Low,Slower,Dec,6,0.540920863198312,left,0,up,3,5,1065.53963360001,1085.68762120001
5,11305,ses1,highSalienceDec,breath,High,Slower,Dec,7,0.540920863198312,left,0,up,3,4,1088.43115670001,1108.7832893
5,11305,ses2,lowSalienceAcc,breath,Low,Faster,Acc,0,0.296492252379305,right,0,up,2,5,902.921592300001,916.483033600001
5,11305,ses2,highSalienceAcc,breath,High,Faster,Acc,1,0.296492252379305,right,1,right,3,5,919.005776199992,932.6664093
5,11305,ses2,lowSalienceAcc,breath,Low,Faster,Acc,2,0.296492252379305,right,0,up,3,4,936.373598399994,949.934163999991
5,11305,ses2,lowSalienceDec,breath,Low,Slower,Dec,3,0.520158771867425,left,1,left,3,4,952.559119700003,972.545836599995
5,11305,ses2,highSalienceAcc,breath,High,Faster,Acc,4,0.296492252379305,right,1,right,3,4,976.23496889999706,989.880419299996
5,11305,ses2,highSalienceDec,breath,High,Slower,Dec,5,0.520158771867425,left,1,left,3,6,992.114218000002,1012.298497
5,11305,ses2,highSalienceDec,breath,High,Slower,Dec,6,0.520158771867425,left,0,up,3,6,1013.92006249999,1034.1042365
5,11305,ses2,lowSalienceDec,breath,Low,Slower,Dec,7,0.520158771867425,left,1,left,3,3,1038.0447403,1058.0289132
5,11338,ses1,highSalienceAcc,breath,High,Faster,Acc,0,0.42123347721856,right,1,right,5,6,956.896401,969.5535476
5,11338,ses1,lowSalienceAcc,breath,Low,Faster,Acc,1,0.42123347721856,right,1,right,5,5,975.4889655,987.934617
5,11338,ses1,lowSalienceAcc,breath,Low,Faster,Acc,2,0.42123347721856,right,1,right,4,5,993.015311,1005.4729192
5,11338,ses1,highSalienceAcc,breath,High,Faster,Acc,3,0.42123347721856,right,1,right,5,5,1010.9417531,1023.586677
5,11338,ses1,lowSalienceDec,breath,Low,Slower,Dec,4,0.245918167397266,left,1,left,5,4,1028.1354543,1046.0807643
5,11338,ses1,highSalienceDec,breath,High,Slower,Dec,5,0.245918167397266,left,0,up,4,4,1049.6168039,1067.5987834
5,11338,ses1,lowSalienceDec,breath,Low,Slower,Dec,6,0.245918167397266,left,0,right,4,4,1073.1739632,1091.1057518
5,11338,ses1,highSalienceDec,breath,High,Slower,Dec,7,0.245918167397266,left,1,left,3,5,1096.5538222,1114.5487491
5,11386,ses1,highSalienceAcc,visual,High,Faster,Acc,0,0.389850812297217,right,1,right,4,5,1075.51977929997,1088.43141419999
5,11386,ses1,lowSalienceDec,visual,Low,Slower,Dec,1,0.380395442184978,left,0,up,4,4,1091.03344359994,1109.99990409997
5,11386,ses1,lowSalienceAcc,visual,Low,Faster,Acc,2,0.389850812297217,right,1,right,4,4,1114.10593999992,1126.85343609995
5,11386,ses1,highSalienceAcc,visual,High,Faster,Acc,3,0.389850812297217,right,1,right,4,4,1129.50573740003,1142.416234
5,11386,ses1,lowSalienceDec,visual,Low,Slower,Dec,4,0.380395442184978,left,1,left,5,6,1145.13825119997,1164.08737860003
5,11386,ses1,highSalienceDec,visual,High,Slower,Dec,5,0.380395442184978,left,1,left,4,5,1168.71225149999,1187.76132019993
5,11386,ses1,lowSalienceAcc,visual,Low,Faster,Acc,6,0.389850812297217,right,1,right,4,5,1190.18395169999,1202.92728339997
5,11386,ses1,highSalienceDec,visual,High,Slower,Dec,7,0.380395442184978,left,0,up,3,3,1205.93316569994,1224.98548299994
5,11389,ses1,highSalienceDec,visual,High,Slower,Dec,0,0.639532536266269,left,1,left,2,4,936.913819400128,958.078777200077
5,11389,ses1,highSalienceAcc,visual,High,Faster,Acc,1,0.362543058168925,right,1,right,2,4,961.800859699957,974.912810400128
5,11389,ses1,lowSalienceDec,visual,Low,Slower,Dec,2,0.639532536266269,left,0,up,3,4,979.815199400065,1000.68472849997
5,11389,ses1,highSalienceAcc,visual,High,Faster,Acc,3,0.362543058168925,right,1,right,3,5,1005.40928520006,1018.51956199994
5,11389,ses1,lowSalienceDec,visual,Low,Slower,Dec,4,0.639532536266269,left,0,up,3,4,1022.26337890001,1043.13325690012
5,11389,ses1,lowSalienceAcc,visual,Low,Faster,Acc,5,0.362543058168925,right,1,right,3,4,1047.5014814001,1060.47953110002
5,11389,ses1,lowSalienceAcc,visual,Low,Faster,Acc,6,0.362543058168925,right,1,right,3,4,1063.48826140002,1076.46760960016
5,11389,ses1,highSalienceDec,visual,High,Slower,Dec,7,0.639532536266269,left,1,left,3,3,1080.51848460012,1101.67217390006
5,11389,ses2,highSalienceAcc,breath,High,Faster,Acc,0,0.199659412198929,right,1,right,2,5,877.158193500014,891.576221300056
5,11389,ses2,lowSalienceDec,breath,Low,Slower,Dec,1,0.542511524203827,left,1,left,2,5,895.081217100145,915.250580300111
5,11389,ses2,highSalienceDec,breath,High,Slower,Dec,2,0.542511524203827,left,0,up,2,4,918.489470900036,938.841552700149
5,11389,ses2,lowSalienceDec,breath,Low,Slower,Dec,3,0.542511524203827,left,0,up,2,4,942.150452600094,962.320727300132
5,11389,ses2,lowSalienceAcc,breath,Low,Faster,Acc,4,0.199659412198929,right,1,right,2,5,966.82622620021,981.206669100095
5,11389,ses2,highSalienceAcc,breath,High,Faster,Acc,5,0.199659412198929,right,0,up,2,4,984.51084490004,998.924984000158
5,11389,ses2,highSalienceDec,breath,High,Slower,Dec,6,0.542511524203827,left,1,left,2,5,1002.53045490012,1022.88282140018
5,11389,ses2,lowSalienceAcc,breath,Low,Faster,Acc,7,0.199659412198929,right,0,up,2,4,1025.46967510018,1039.85051150015
5,11416,ses1,lowSalienceDec,visual,Low,Slower,Dec,0,0.491163236657144,left,1,left,4,5,1001.55204370001,1021.31934689998
5,11416,ses1,lowSalienceDec,visual,Low,Slower,Dec,1,0.491163236657144,left,1,left,4,4,1027.46509850002,1047.24625229998
5,11416,ses1,highSalienceDec,visual,High,Slower,Dec,2,0.491163236657144,left,1,left,4,4,1051.98988490005,1071.95970899996
5,11416,ses1,lowSalienceAcc,visual,Low,Faster,Acc,3,0.198484737048555,right,1,right,3,5,1077.66446310002,1092.0760463
5,11416,ses1,highSalienceDec,visual,High,Slower,Dec,4,0.491163236657144,left,1,left,3,4,1098.7738347,1118.72523460002
5,11416,ses1,highSalienceAcc,visual,High,Faster,Acc,5,0.198484737048555,right,1,right,3,5,1124.33154110005,1138.79059630004
5,11416,ses1,highSalienceAcc,visual,High,Faster,Acc,6,0.198484737048555,right,1,right,3,5,1142.41421690001,1156.85940880002
5,11416,ses1,lowSalienceAcc,visual,Low,Faster,Acc,7,0.198484737048555,right,0,up,3,4,1160.63351029996,1175.04492190003
5,11416,ses2,highSalienceAcc,breath,High,Faster,Acc,0,0.245982005252254,right,1,right,3,3,790.122068300028,804.180012700032
5,11416,ses2,lowSalienceAcc,breath,Low,Faster,Acc,1,0.245982005252254,right,0,up,3,4,808.015800300054,822.027101199958
5,11416,ses2,highSalienceDec,breath,High,Slower,Dec,2,0.154739367215442,left,0,up,3,3,824.799859000021,842.04761629994
5,11416,ses2,lowSalienceDec,breath,Low,Slower,Dec,3,0.154739367215442,left,1,left,3,3,845.95721579995,863.191105899983
5,11416,ses2,lowSalienceDec,breath,Low,Slower,Dec,4,0.154739367215442,left,0,up,3,3,866.045028500026,883.278313899995
5,11416,ses2,lowSalienceAcc,breath,Low,Faster,Acc,5,0.245982005252254,right,1,right,3,4,886.397115799948,900.407820999972
5,11416,ses2,highSalienceDec,breath,High,Slower,Dec,6,0.154739367215442,left,0,up,3,4,905.753089300008,923.002606200054
5,11416,ses2,highSalienceAcc,breath,High,Faster,Acc,7,0.245982005252254,right,1,right,3,4,926.590214799973,940.637756400043
5,11452,ses1,lowSalienceDec,breath,Low,Slower,Dec,0,0.467235678685345,left,1,left,2,3,952.202653899993,971.809495599999
5,11452,ses1,lowSalienceAcc,breath,Low,Faster,Acc,1,0.46175013249386,right,1,right,2,5,975.974586299999,988.081238600003
5,11452,ses1,lowSalienceDec,breath,Low,Slower,Dec,2,0.467235678685345,left,1,left,2,4,991.032422399992,1010.6330766
5,11452,ses1,highSalienceAcc,breath,High,Faster,Acc,3,0.46175013249386,right,1,right,2,6,1015.4919486,1027.8504135
5,11452,ses1,highSalienceDec,breath,High,Slower,Dec,4,0.467235678685345,left,1,left,2,5,1031.25729369999,1051.008017
5,11452,ses1,lowSalienceAcc,breath,Low,Faster,Acc,5,0.46175013249386,right,1,right,1,4,1060.2397277,1072.3465596
5,11452,ses1,highSalienceDec,breath,High,Slower,Dec,6,0.467235678685345,left,1,left,2,3,1077.87222819999,1097.63953469999
5,11452,ses1,highSalienceAcc,breath,High,Faster,Acc,7,0.46175013249386,right,1,right,3,6,1107.3357698,1119.6786614
5,11452,ses2,lowSalienceAcc,breath,Low,Faster,Acc,0,0.28818987295275,right,0,up,1,3,947.759478499996,961.407394199996
5,11452,ses2,lowSalienceAcc,breath,Low,Faster,Acc,1,0.28818987295275,right,0,up,1,3,969.319651099999,982.97979659999
5,11452,ses2,lowSalienceDec,breath,Low,Slower,Dec,2,0.651242917316836,left,1,left,1,3,991.044656599988,1011.9813837
5,11452,ses2,highSalienceAcc,breath,High,Faster,Acc,3,0.28818987295275,right,0,up,1,2,1017.08507269999,1030.81245069999
5,11452,ses2,highSalienceDec,breath,High,Slower,Dec,4,0.651242917316836,left,1,left,1,4,1038.89265559999,1060.11440599999
5,11452,ses2,highSalienceAcc,breath,High,Faster,Acc,5,0.28818987295275,right,1,right,1,4,1066.45502549999,1080.16826729999
5,11452,ses2,highSalienceDec,breath,High,Slower,Dec,6,0.651242917316836,left,1,left,1,3,1088.27744579999,1109.49849339999
5,11452,ses2,lowSalienceDec,breath,Low,Slower,Dec,7,0.651242917316836,left,0,up,1,1,1114.0870614,1135.0247446
5,11458,ses1,highSalienceDec,breath,High,Slower,Dec,0,0.426290181317743,left,1,left,3,5,961.798958799998,981.219096699999
5,11458,ses1,lowSalienceAcc,breath,Low,Faster,Acc,1,0.377656996702648,right,0,up,4,4,985.078512300002,997.936487800005
5,11458,ses1,lowSalienceAcc,breath,Low,Faster,Acc,2,0.377656996702648,right,1,right,4,5,1002.8968895,1015.7548394
5,11458,ses1,highSalienceDec,breath,High,Slower,Dec,3,0.426290181317743,left,1,left,4,5,1020.8632741,1040.2800696
5,11458,ses1,lowSalienceDec,breath,Low,Slower,Dec,4,0.426290181317743,left,0,up,4,5,1044.3229344,1063.6206165
5,11458,ses1,lowSalienceDec,breath,Low,Slower,Dec,5,0.426290181317743,left,1,left,4,5,1070.1977472,1089.4976118
5,11458,ses1,highSalienceAcc,breath,High,Faster,Acc,6,0.377656996702648,right,1,right,4,5,1094.3555299,1107.3656858
5,11458,ses1,highSalienceAcc,breath,High,Faster,Acc,7,0.377656996702648,right,1,right,3,5,1112.0573808,1125.084002
5,11458,ses2,lowSalienceAcc,breath,Low,Faster,Acc,0,0.176185649294898,right,0,up,3,5,772.594380499999,787.176087299995
5,11458,ses2,lowSalienceAcc,breath,Low,Faster,Acc,1,0.176185649294898,right,0,up,3,5,788.747735199999,803.3426788
5,11458,ses2,highSalienceDec,breath,High,Slower,Dec,2,0.415611540326329,left,1,left,3,5,804.6341799,823.9853248
5,11458,ses2,highSalienceAcc,breath,High,Faster,Acc,3,0.176185649294898,right,0,up,3,5,825.335519299995,839.963921499999
5,11458,ses2,highSalienceAcc,breath,High,Faster,Acc,4,0.176185649294898,right,0,up,3,5,841.987186499995,856.6142234
5,11458,ses2,lowSalienceDec,breath,Low,Slower,Dec,5,0.415611540326329,left,0,up,3,5,858.202614099995,877.452337099996
5,11458,ses2,highSalienceDec,breath,High,Slower,Dec,6,0.415611540326329,left,1,left,3,5,879.092980900001,898.445596500002
5,11458,ses2,lowSalienceDec,breath,Low,Slower,Dec,7,0.415611540326329,left,0,up,3,5,900.262745399996,919.495640699999
5,11506,ses1,highSalienceDec,breath,High,Slower,Dec,0,0.643999072404238,left,1,left,4,4,947.402006000048,968.593328900053
5,11506,ses1,lowSalienceDec,breath,Low,Slower,Dec,1,0.643999072404238,left,0,right,5,6,974.15473489998794,995.054091400001
5,11506,ses1,highSalienceAcc,breath,High,Faster,Acc,2,0.427891434346784,right,1,right,4,6,1001.11531889997,1013.73889819998
5,11506,ses1,lowSalienceAcc,breath,Low,Faster,Acc,3,0.427891434346784,right,0,up,3,4,1017.91798989999,1030.34402289998
5,11506,ses1,lowSalienceAcc,breath,Low,Faster,Acc,4,0.427891434346784,right,0,left,2,2,1036.29908080003,1048.72624760005
5,11506,ses1,highSalienceAcc,breath,High,Faster,Acc,5,0.427891434346784,right,1,right,4,5,1053.3842185,1066.00947209995
5,11506,ses1,highSalienceDec,breath,High,Slower,Dec,6,0.643999072404238,left,1,left,2,5,1069.53470600001,1090.73626489996
5,11506,ses1,lowSalienceDec,breath,Low,Slower,Dec,7,0.643999072404238,left,0,up,2,5,1095.42767670006,1116.34461879998
5,11506,ses2,lowSalienceDec,breath,Low,Slower,Dec,0,0.73247367674586,left,1,left,3,6,845.041713099927,866.564727099962
5,11506,ses2,lowSalienceDec,breath,Low,Slower,Dec,1,0.73247367674586,left,0,up,1,4,870.839342299965,892.391610299936
5,11506,ses2,highSalienceAcc,breath,High,Faster,Acc,2,0.536917190259154,right,1,right,4,6,896.033067499986,907.777830999927
5,11506,ses2,lowSalienceAcc,breath,Low,Faster,Acc,3,0.536917190259154,right,1,right,4,5,911.531201199978,922.92288879992
5,11506,ses2,lowSalienceAcc,breath,Low,Faster,Acc,4,0.536917190259154,right,1,right,4,6,926.349119199906,937.72505020001
5,11506,ses2,highSalienceAcc,breath,High,Faster,Acc,5,0.536917190259154,right,0,up,4,4,940.812045399914,952.568919599988
5,11506,ses2,highSalienceDec,breath,High,Slower,Dec,6,0.73247367674586,left,1,left,1,6,957.481590099982,979.368128099944
5,11506,ses2,highSalienceDec,breath,High,Slower,Dec,7,0.73247367674586,left,0,up,3,4,983.605210199952,1005.49026549992
5,11515,ses1,lowSalienceDec,breath,Low,Slower,Dec,0,0.402291374023598,left,0,up,3,5,1036.2818458,1055.4288275
5,11515,ses1,highSalienceAcc,breath,High,Faster,Acc,1,0.318879409617372,right,1,right,3,3,1059.1962636,1072.6764713
5,11515,ses1,lowSalienceAcc,breath,Low,Faster,Acc,2,0.318879409617372,right,1,right,3,4,1079.1666151,1092.5301357
5,11515,ses1,lowSalienceDec,breath,Low,Slower,Dec,3,0.402291374023598,left,1,left,3,5,1096.4866378,1115.6200145
5,11515,ses1,highSalienceDec,breath,High,Slower,Dec,4,0.402291374023598,left,0,up,2,5,1120.2749572,1139.5275046
5,11515,ses1,lowSalienceAcc,breath,Low,Faster,Acc,5,0.318879409617372,right,0,up,2,4,1143.6937552,1157.0646582
5,11515,ses1,highSalienceDec,breath,High,Slower,Dec,6,0.402291374023598,left,1,left,2,3,1162.0898064,1181.352962
5,11515,ses1,highSalienceAcc,breath,High,Faster,Acc,7,0.318879409617372,right,0,up,2,3,1186.0748608,1199.5550352
5,11515,ses2,lowSalienceDec,breath,Low,Slower,Dec,0,0.357360027134923,left,0,up,4,5,815.441045200001,834.234981999998
5,11515,ses2,highSalienceDec,breath,High,Slower,Dec,1,0.357360027134923,left,0,up,4,5,836.851229600001,855.737202100001
5,11515,ses2,highSalienceAcc,breath,High,Faster,Acc,2,0.206184387377424,right,1,right,4,5,858.840197099998,873.2212831
5,11515,ses2,lowSalienceDec,breath,Low,Slower,Dec,3,0.357360027134923,left,1,left,4,5,876.158023799999,894.9430182
5,11515,ses2,lowSalienceAcc,breath,Low,Faster,Acc,4,0.206184387377424,right,0,up,4,5,897.365855,911.696929900001
5,11515,ses2,highSalienceAcc,breath,High,Faster,Acc,5,0.206184387377424,right,1,right,4,5,916.798854100001,931.179619800001
5,11515,ses2,highSalienceDec,breath,High,Slower,Dec,6,0.357360027134923,left,0,up,4,4,935.173906299999,954.073031799999
5,11515,ses2,lowSalienceAcc,breath,Low,Faster,Acc,7,0.206184387377424,right,1,right,4,5,958.8280376,973.158808100001
5,11524,ses1,lowSalienceDec,visual,Low,Slower,Dec,0,0.358392483694534,left,0,up,4,4,892.638648799999,911.443797399996
5,11524,ses1,highSalienceAcc,visual,High,Faster,Acc,1,0.190091791434435,right,1,right,4,4,915.637106899994,930.163145699997
5,11524,ses1,lowSalienceAcc,visual,Low,Faster,Acc,2,0.190091791434435,right,0,up,4,4,934.908822599995,949.388070599998
5,11524,ses1,highSalienceDec,visual,High,Slower,Dec,3,0.358392483694534,left,1,left,4,5,953.343068999995,972.240101599993
5,11524,ses1,highSalienceAcc,visual,High,Faster,Acc,4,0.190091791434435,right,1,right,4,4,977.719574799994,992.232308699997
5,11524,ses1,highSalienceDec,visual,High,Slower,Dec,5,0.358392483694534,left,1,left,4,4,995.9531613,1014.8504262
5,11524,ses1,lowSalienceAcc,visual,Low,Faster,Acc,6,0.190091791434435,right,0,up,4,5,1019.8147365,1034.30847649999
5,11524,ses1,lowSalienceDec,visual,Low,Slower,Dec,7,0.358392483694534,left,1,left,4,5,1037.6605189,1056.46005199999
5,11524,ses2,highSalienceAcc,breath,High,Faster,Acc,0,0.188396563657614,right,0,up,3,4,807.190411399999,821.713960900001
5,11524,ses2,lowSalienceAcc,breath,Low,Faster,Acc,1,0.188396563657614,right,0,up,3,4,823.58097540000006,838.075865400002
5,11524,ses2,highSalienceDec,breath,High,Slower,Dec,2,0.342992179814311,left,1,left,3,5,841.402649000003,860.153539700004
5,11524,ses2,lowSalienceAcc,breath,Low,Faster,Acc,3,0.188396563657614,right,0,up,3,5,863.190185600004,877.6715931
5,11524,ses2,lowSalienceDec,breath,Low,Slower,Dec,4,0.342992179814311,left,1,left,3,3,879.391947399999,898.059091700001
5,11524,ses2,highSalienceDec,breath,High,Slower,Dec,5,0.342992179814311,left,1,left,3,5,901.598365100006,920.348814000004
5,11524,ses2,lowSalienceDec,breath,Low,Slower,Dec,6,0.342992179814311,left,0,up,3,5,922.099204800004,940.781792000002
5,11524,ses2,highSalienceAcc,breath,High,Faster,Acc,7,0.188396563657614,right,1,right,3,5,942.453306300005,956.981915600001
5,11545,ses1,lowSalienceAcc,breath,Low,Faster,Acc,0,0.24752555058525,right,1,right,5,5,931.204589800094,945.211782500031
5,11545,ses1,highSalienceDec,breath,High,Slower,Dec,1,0.9964033444523,left,1,left,4,2,946.982265700004,970.974467399996
5,11545,ses1,highSalienceAcc,breath,High,Faster,Acc,2,0.24752555058525,right,0,up,5,5,973.643522800063,987.688736000098
5,11545,ses1,lowSalienceDec,breath,Low,Slower,Dec,3,0.9964033444523,left,0,up,4,4,990.762286900077,1014.16447090008
5,11545,ses1,highSalienceDec,breath,High,Slower,Dec,4,0.9964033444523,left,0,right,4,4,1016.28574750002,1040.27815300005
5,11545,ses1,lowSalienceAcc,breath,Low,Faster,Acc,5,0.24752555058525,right,1,right,5,5,1042.47900540009,1056.47744000005
5,11545,ses1,lowSalienceDec,breath,Low,Slower,Dec,6,0.9964033444523,left,0,right,5,5,1058.39538970008,1081.7872129
5,11545,ses1,highSalienceAcc,breath,High,Faster,Acc,7,0.24752555058525,right,1,right,4,4,1083.60386240005,1097.65270190011
5,11644,ses1,highSalienceAcc,visual,High,Faster,Acc,0,0.509497874661896,right,1,right,4,5,890.16132720001,902.110545800067
5,11644,ses1,highSalienceAcc,visual,High,Faster,Acc,1,0.509497874661896,right,1,right,4,4,906.63801939995,918.594161099987
5,11644,ses1,lowSalienceDec,visual,Low,Slower,Dec,2,0.189815088144857,left,0,up,4,3,921.951063800137,939.498960600002
5,11644,ses1,lowSalienceDec,visual,Low,Slower,Dec,3,0.189815088144857,left,1,left,4,4,944.174621799961,961.72198459995
5,11644,ses1,highSalienceDec,visual,High,Slower,Dec,4,0.189815088144857,left,0,up,4,4,965.829437900102,983.377679700032
5,11644,ses1,lowSalienceAcc,visual,Low,Faster,Acc,5,0.509497874661896,right,1,right,3,5,987.018326499965,998.676780400099
5,11644,ses1,highSalienceDec,visual,High,Slower,Dec,6,0.189815088144857,left,0,up,3,4,1002.72003590013,1020.28229150013
5,11644,ses1,lowSalienceAcc,visual,Low,Faster,Acc,7,0.509497874661896,right,1,right,4,6,1024.17567800009,1035.83186160005
5,11644,ses2,highSalienceAcc,breath,High,Faster,Acc,0,0.278842861543673,right,1,right,3,5,837.55206259992,851.331407799851
5,11644,ses2,highSalienceDec,breath,High,Slower,Dec,1,0.190832184459819,left,1,left,3,2,857.357938800007,874.922236699844
5,11644,ses2,lowSalienceDec,breath,Low,Slower,Dec,2,0.190832184459819,left,1,left,3,4,878.729321899824,896.260891499929
5,11644,ses2,highSalienceDec,breath,High,Slower,Dec,3,0.190832184459819,left,1,left,3,3,899.717622899916,917.266061799834
5,11644,ses2,lowSalienceDec,breath,Low,Slower,Dec,4,0.190832184459819,left,1,left,3,3,922.408120299922,939.956355599919
5,11644,ses2,lowSalienceAcc,breath,Low,Faster,Acc,5,0.278842861543673,right,1,right,3,5,944.981181500014,958.675434699981
5,11644,ses2,lowSalienceAcc,breath,Low,Faster,Acc,6,0.278842861543673,right,1,right,3,4,962.485748599982,976.181366399862
5,11644,ses2,highSalienceAcc,breath,High,Faster,Acc,7,0.278842861543673,right,1,right,2,3,978.983322300017,992.777296500048
5,11956,ses1,highSalienceDec,breath,High,Slower,Dec,0,0.199086463780891,left,0,up,5,5,893.445580400061,911.065005599987
5,11956,ses1,lowSalienceDec,breath,Low,Slower,Dec,1,0.199086463780891,left,0,up,5,4,914.477249500109,932.074765700148
5,11956,ses1,highSalienceAcc,breath,High,Faster,Acc,2,0.327195439830263,right,1,right,5,5,935.061120100087,948.487208800158
5,11956,ses1,lowSalienceAcc,breath,Low,Faster,Acc,3,0.327195439830263,right,1,right,5,5,953.000130099943,966.327340000076
5,11956,ses1,lowSalienceAcc,breath,Low,Faster,Acc,4,0.327195439830263,right,1,right,5,4,968.711893399945,982.021597600076
5,11956,ses1,lowSalienceDec,breath,Low,Slower,Dec,5,0.199086463780891,left,1,left,5,5,984.915370200062,1002.49765180005
5,11956,ses1,highSalienceAcc,breath,High,Faster,Acc,6,0.327195439830263,right,1,right,5,4,1010.28758330015,1023.71458290005
5,11956,ses1,highSalienceDec,breath,High,Slower,Dec,7,0.199086463780891,left,1,left,4,5,1031.66496319999,1049.29597490001
5,11956,ses2,lowSalienceAcc,breath,Low,Faster,Acc,0,0.264276870851642,right,1,right,4,3,916.939037899952,930.784527099924
5,11956,ses2,lowSalienceDec,breath,Low,Slower,Dec,1,0.726079899535977,left,0,up,4,4,940.949469899992,962.452060699929
5,11956,ses2,highSalienceDec,breath,High,Slower,Dec,2,0.726079899535977,left,0,up,3,4,965.67415570002,987.510750599904
5,11956,ses2,highSalienceDec,breath,High,Slower,Dec,3,0.726079899535977,left,1,left,4,5,998.824841300026,1020.64498770004
5,11956,ses2,highSalienceAcc,breath,High,Faster,Acc,4,0.264276870851642,right,1,right,4,5,1022.68401820003,1036.61133119999
5,11956,ses2,highSalienceAcc,breath,High,Faster,Acc,5,0.264276870851642,right,1,right,4,4,1038.23268909985,1052.14317819988
5,11956,ses2,lowSalienceDec,breath,Low,Slower,Dec,6,0.726079899535977,left,1,left,4,4,1057.36970219994,1078.85531889996
5,11956,ses2,lowSalienceAcc,breath,Low,Faster,Acc,7,0.264276870851642,right,1,right,4,5,1082.06164920004,1095.9215694
5,11968,ses1,lowSalienceAcc,visual,Low,Faster,Acc,0,0.283327908437283,right,1,right,5,4,891.964361199993,905.644947899971
5,11968,ses1,lowSalienceDec,visual,Low,Slower,Dec,1,0.56655183186939,left,1,left,5,4,909.07568879996,929.422379800002
5,11968,ses1,lowSalienceAcc,visual,Low,Faster,Acc,2,0.283327908437283,right,1,right,5,4,931.908114999998,945.602014499949
5,11968,ses1,highSalienceAcc,visual,High,Faster,Acc,3,0.283327908437283,right,1,right,4,4,948.174874800025,961.921778599964
5,11968,ses1,highSalienceAcc,visual,High,Faster,Acc,4,0.283327908437283,right,0,up,5,3,964.73236299993,978.48943159997
5,11968,ses1,lowSalienceDec,visual,Low,Slower,Dec,5,0.56655183186939,left,0,up,4,3,980.974419199978,1001.31151959999
5,11968,ses1,highSalienceDec,visual,High,Slower,Dec,6,0.56655183186939,left,1,left,5,4,1005.48217540001,1026.03644890001
5,11968,ses1,highSalienceDec,visual,High,Slower,Dec,7,0.56655183186939,left,0,up,4,4,1028.52225549996,1049.08936420002
5,11968,ses2,highSalienceDec,breath,High,Slower,Dec,0,0.425286797676868,left,1,left,5,5,787.703238200047,807.137487499975
5,11968,ses2,lowSalienceAcc,breath,Low,Faster,Acc,1,0.359885388212758,right,1,right,5,4,809.629529100028,822.655824200017
5,11968,ses2,lowSalienceDec,breath,Low,Slower,Dec,2,0.425286797676868,left,0,up,5,5,824.611798600061,843.91056270001
5,11968,ses2,lowSalienceAcc,breath,Low,Faster,Acc,3,0.359885388212758,right,1,right,5,3,847.777886800002,860.790130599984
5,11968,ses2,highSalienceDec,breath,High,Slower,Dec,4,0.425286797676868,left,1,left,4,3,863.844052499975,883.263509900076
5,11968,ses2,lowSalienceDec,breath,Low,Slower,Dec,5,0.425286797676868,left,0,up,5,4,885.934814300039,905.218725900049
5,11968,ses2,highSalienceAcc,breath,High,Faster,Acc,6,0.359885388212758,right,1,right,5,5,907.721843200037,920.868021300063
5,11968,ses2,highSalienceAcc,breath,High,Faster,Acc,7,0.359885388212758,right,0,up,5,4,923.971684399992,937.118035200052
5,11980,ses1,lowSalienceDec,breath,Low,Slower,Dec,0,0.460881078792194,left,0,up,2,4,967.219340199837,986.795289499918
5,11980,ses1,highSalienceDec,breath,High,Slower,Dec,1,0.460881078792194,left,1,left,2,4,989.773100299994,1009.50602039997
5,11980,ses1,lowSalienceAcc,breath,Low,Faster,Acc,2,0.391176739135083,right,1,right,2,3,1013.54399659997,1026.28613219992
5,11980,ses1,highSalienceDec,breath,High,Slower,Dec,3,0.460881078792194,left,0,up,1,4,1029.95925399987,1049.67689040001
5,11980,ses1,highSalienceAcc,breath,High,Faster,Acc,4,0.391176739135083,right,0,up,1,5,1053.26750179986,1066.1608533999
5,11980,ses1,lowSalienceAcc,breath,Low,Faster,Acc,5,0.391176739135083,right,0,up,2,5,1070.01895259996,1082.76121649984
5,11980,ses1,lowSalienceDec,breath,Low,Slower,Dec,6,0.460881078792194,left,1,left,3,3,1086.83461489994,1106.40243249992
5,11980,ses1,highSalienceAcc,breath,High,Faster,Acc,7,0.391176739135083,right,0,up,2,3,1110.79283799999,1123.66879200004
5,11980,ses2,lowSalienceDec,breath,Low,Slower,Dec,0,0.306901489315961,left,0,up,3,3,796.011417199858,814.438946299953
5,11980,ses2,lowSalienceAcc,breath,Low,Faster,Acc,1,0.383733713249506,right,1,right,3,3,815.68954859999894,828.483432299923
5,11980,ses2,highSalienceDec,breath,High,Slower,Dec,2,0.306901489315961,left,0,up,3,3,830.654734799871,849.137698399834
5,11980,ses2,highSalienceAcc,breath,High,Faster,Acc,3,0.383733713249506,right,1,right,3,4,853.62897189986,866.587778499816
5,11980,ses2,lowSalienceDec,breath,Low,Slower,Dec,4,0.306901489315961,left,0,up,2,4,868.895161199849,887.327153199818
5,11980,ses2,highSalienceAcc,breath,High,Faster,Acc,5,0.383733713249506,right,1,right,2,4,890.817625799915,903.777273699874
5,11980,ses2,lowSalienceAcc,breath,Low,Faster,Acc,6,0.383733713249506,right,0,up,3,3,907.736050799955,920.531829099869
5,11980,ses2,highSalienceDec,breath,High,Slower,Dec,7,0.306901489315961,left,0,up,3,3,921.883271199884,940.380649099825
5,11992,ses1,lowSalienceAcc,visual,Low,Faster,Acc,0,0.247980106079547,right,1,right,6,6,919.419410199975,933.417768899992
5,11992,ses1,lowSalienceAcc,visual,Low,Faster,Acc,1,0.247980106079547,right,1,right,6,5,937.359795199998,951.369444499956
5,11992,ses1,highSalienceAcc,visual,High,Faster,Acc,2,0.247980106079547,right,1,right,6,6,954.780747799959,968.841017399973
5,11992,ses1,highSalienceDec,visual,High,Slower,Dec,3,0.702553845653657,left,0,up,6,4,972.846731199999,994.512388899981
5,11992,ses1,lowSalienceDec,visual,Low,Slower,Dec,4,0.702553845653657,left,1,left,6,5,997.939041999984,1019.27262389997
5,11992,ses1,highSalienceAcc,visual,High,Faster,Acc,5,0.247980106079547,right,1,right,6,6,1023.12983009999,1037.19109029998
5,11992,ses1,highSalienceDec,visual,High,Slower,Dec,6,0.702553845653657,left,0,up,6,5,1040.46367129998,1062.1155827
5,11992,ses1,lowSalienceDec,visual,Low,Slower,Dec,7,0.702553845653657,left,1,left,6,4,1066.37450139999,1087.708659
5,11992,ses2,lowSalienceAcc,breath,Low,Faster,Acc,0,0.161127565628183,right,1,right,6,3,790.510131500021,805.244757500011
5,11992,ses2,lowSalienceAcc,breath,Low,Faster,Acc,1,0.161127565628183,right,0,up,6,4,806.899209399999,821.628307800042
5,11992,ses2,highSalienceAcc,breath,High,Faster,Acc,2,0.161127565628183,right,0,up,6,5,824.033877500042,838.779456100019
5,11992,ses2,lowSalienceDec,breath,Low,Slower,Dec,3,0.627959346009657,left,1,left,6,4,840.851679700019,861.636600500031
5,11992,ses2,highSalienceAcc,breath,High,Faster,Acc,4,0.161127565628183,right,0,up,6,4,863.794670800038,878.540843499999
5,11992,ses2,highSalienceDec,breath,High,Slower,Dec,5,0.627959346009657,left,0,up,6,4,884.783276700007,905.835690200038
5,11992,ses2,lowSalienceDec,breath,Low,Slower,Dec,6,0.627959346009657,left,0,right,5,3,907.652545400022,928.438220000011
5,11992,ses2,highSalienceDec,breath,High,Slower,Dec,7,0.627959346009657,left,0,up,6,4,932.281251500011,953.33468640002
5,12043,ses1,highSalienceAcc,breath,High,Faster,Acc,0,0.386161309378753,right,1,right,4,5,1459.83888829988,1472.79388400004
5,12043,ses1,lowSalienceDec,breath,Low,Slower,Dec,1,0.792234480719669,left,1,left,3,5,1475.33187190001,1497.29897930007
5,12043,ses1,lowSalienceDec,breath,Low,Slower,Dec,2,0.792234480719669,left,0,up,3,3,1499.84040819993,1521.80751800002
5,12043,ses1,lowSalienceAcc,breath,Low,Faster,Acc,3,0.386161309378753,right,1,right,3,4,1524.34888030007,1537.14005759987
5,12043,ses1,highSalienceDec,breath,High,Slower,Dec,4,0.792234480719669,left,1,left,3,5,1539.59773069993,1561.96578709991
5,12043,ses1,highSalienceAcc,breath,High,Faster,Acc,5,0.386161309378753,right,1,right,3,5,1567.29533679993,1580.25493080006
5,12043,ses1,highSalienceDec,breath,High,Slower,Dec,6,0.792234480719669,left,1,left,3,5,1593.37030140008,1615.73764900002
5,12043,ses1,lowSalienceAcc,breath,Low,Faster,Acc,7,0.386161309378753,right,1,right,3,5,1620.89620919991,1633.68970469991
5,12043,ses2,lowSalienceAcc,breath,Low,Faster,Acc,0,0.202586707859021,right,1,right,3,5,946.217990400037,960.600059299963
5,12043,ses2,lowSalienceDec,breath,Low,Slower,Dec,1,0.848615681022417,left,0,up,3,5,962.310453800019,984.696684200084
5,12043,ses2,highSalienceDec,breath,High,Slower,Dec,2,0.848615681022417,left,0,up,3,5,988.3671875,1011.20358489989
5,12043,ses2,highSalienceAcc,breath,High,Faster,Acc,3,0.202586707859021,right,1,right,3,4,1014.04329299997,1028.45482539991
5,12043,ses2,highSalienceDec,breath,High,Slower,Dec,4,0.848615681022417,left,0,up,3,5,1030.74376729992,1053.56414750009
5,12043,ses2,lowSalienceAcc,breath,Low,Faster,Acc,5,0.202586707859021,right,1,right,3,5,1055.95698469994,1070.35170629993
5,12043,ses2,lowSalienceDec,breath,Low,Slower,Dec,6,0.848615681022417,left,0,right,3,4,1073.05375680001,1095.44084320008
5,12043,ses2,highSalienceAcc,breath,High,Faster,Acc,7,0.202586707859021,right,1,right,4,4,1097.1958019,1111.62412169995
5,12340,ses1,lowSalienceAcc,breath,Low,Faster,Acc,0,0.47971587483162,right,0,up,4,4,873.114667299989,885.023649900002
5,12340,ses1,lowSalienceDec,breath,Low,Slower,Dec,1,0.256690412999896,left,1,left,2,6,888.499935699991,906.534067799992
5,12340,ses1,highSalienceDec,breath,High,Slower,Dec,2,0.256690412999896,left,1,left,3,6,910.288637199992,928.373545900002
5,12340,ses1,lowSalienceDec,breath,Low,Slower,Dec,3,0.256690412999896,left,1,left,3,4,938.684767500003,956.719279700003
5,12340,ses1,highSalienceAcc,breath,High,Faster,Acc,4,0.47971587483162,right,1,right,3,6,967.030424299999,979.208944999991
5,12340,ses1,highSalienceAcc,breath,High,Faster,Acc,5,0.47971587483162,right,1,right,2,5,982.679516899996,994.858282899993
5,12340,ses1,lowSalienceAcc,breath,Low,Faster,Acc,6,0.47971587483162,right,0,up,3,4,1005.01554909999,1016.9263163
5,12340,ses1,highSalienceDec,breath,High,Slower,Dec,7,0.256690412999896,left,1,left,5,5,1028.04331319999,1046.12796509999
5,12340,ses2,lowSalienceAcc,breath,Low,Faster,Acc,0,0.531373058025711,right,1,right,3,5,844.534644900006,855.972580000001
5,12340,ses2,highSalienceAcc,breath,High,Faster,Acc,1,0.531373058025711,right,0,up,3,5,858.422007700006,870.199174000008
5,12340,ses2,lowSalienceDec,breath,Low,Slower,Dec,2,0.251241209126665,left,0,up,3,5,872.740466400006,890.725125700003
5,12340,ses2,highSalienceDec,breath,High,Slower,Dec,3,0.251241209126665,left,0,up,3,4,897.263026800007,915.278588800007
5,12340,ses2,highSalienceAcc,breath,High,Faster,Acc,4,0.531373058025711,right,1,right,4,6,918.404385800008,930.182347900001
5,12340,ses2,lowSalienceDec,breath,Low,Slower,Dec,5,0.251241209126665,left,1,left,3,4,933.115867300003,951.1158612
5,12340,ses2,highSalienceDec,breath,High,Slower,Dec,6,0.251241209126665,left,0,up,3,5,955.141901499999,973.159986400002
5,12340,ses2,lowSalienceAcc,breath,Low,Faster,Acc,7,0.531373058025711,right,1,right,3,5,976.777033799997,988.203990599999
5,12598,ses1,lowSalienceAcc,visual,Low,Faster,Acc,0,0.208429014841932,right,1,right,4,4,911.657783800038,925.97632310004
5,12598,ses1,highSalienceAcc,visual,High,Faster,Acc,1,0.208429014841932,right,0,up,4,4,932.987272399943,947.348175700055
5,12598,ses1,lowSalienceDec,visual,Low,Slower,Dec,2,0.502314231970162,left,0,up,5,4,961.117868500063,980.999778100057
5,12598,ses1,highSalienceDec,visual,High,Slower,Dec,3,0.502314231970162,left,1,left,5,6,988.410549700027,1008.4611802001
5,12598,ses1,lowSalienceAcc,visual,Low,Faster,Acc,4,0.208429014841932,right,1,right,4,5,1011.37184970011,1025.68413559999
5,12598,ses1,highSalienceDec,visual,High,Slower,Dec,5,0.502314231970162,left,1,left,5,5,1030.22033000016,1050.28772779997
5,12598,ses1,highSalienceAcc,visual,High,Faster,Acc,6,0.208429014841932,right,1,right,6,6,1055.78766670008,1070.14662869996
5,12598,ses1,lowSalienceDec,visual,Low,Slower,Dec,7,0.502314231970162,left,1,left,5,5,1072.78084200015,1092.6482535
5,12598,ses2,highSalienceAcc,breath,High,Faster,Acc,0,0.256970670080587,right,1,right,5,5,910.144263899885,924.127873399993
5,12598,ses2,highSalienceDec,breath,High,Slower,Dec,1,0.54850296637586,left,1,left,4,6,929.253463099943,949.687608999899
5,12598,ses2,lowSalienceDec,breath,Low,Slower,Dec,2,0.54850296637586,left,1,left,3,5,954.684144399827,974.885285699973
5,12598,ses2,lowSalienceAcc,breath,Low,Faster,Acc,3,0.256970670080587,right,1,right,4,5,979.472208899911,993.399594799848
5,12598,ses2,lowSalienceDec,breath,Low,Slower,Dec,4,0.54850296637586,left,0,up,2,3,998.980557499919,1019.19774289988
5,12598,ses2,lowSalienceAcc,breath,Low,Faster,Acc,5,0.256970670080587,right,0,up,4,4,1024.83500849991,1038.74650239991
5,12598,ses2,highSalienceDec,breath,High,Slower,Dec,6,0.54850296637586,left,1,left,1,6,1043.10788369994,1063.52627569996
5,12598,ses2,highSalienceAcc,breath,High,Faster,Acc,7,0.256970670080587,right,0,up,4,4,1067.10027990001,1081.09470579983
5,12619,ses1,lowSalienceAcc,visual,Low,Faster,Acc,0,0.448063682700028,right,1,right,4,5,853.471936000002,865.683060200001
5,12619,ses1,lowSalienceAcc,visual,Low,Faster,Acc,1,0.448063682700028,right,1,right,4,5,869.6101308,881.821373700001
5,12619,ses1,lowSalienceDec,visual,Low,Slower,Dec,2,0.364763412170835,left,1,left,4,4,886.3561472,905.190606100001
5,12619,ses1,highSalienceAcc,visual,High,Faster,Acc,3,0.448063682700028,right,1,right,4,5,908.166460299999,920.6111246
5,12619,ses1,lowSalienceDec,visual,Low,Slower,Dec,4,0.364763412170835,left,1,left,4,5,924.2662026,943.101190699999
5,12619,ses1,highSalienceDec,visual,High,Slower,Dec,5,0.364763412170835,left,1,left,4,5,947.0233825,965.974872300001
5,12619,ses1,highSalienceAcc,visual,High,Faster,Acc,6,0.448063682700028,right,1,right,4,5,969.241654500001,981.6862397
5,12619,ses1,highSalienceDec,visual,High,Slower,Dec,7,0.364763412170835,left,0,up,4,5,984.9788591,1003.9305137
5,12619,ses2,lowSalienceDec,breath,Low,Slower,Dec,0,0.343319277181469,left,0,up,3,4,960.176714000001,978.8625799
5,12619,ses2,lowSalienceDec,breath,Low,Slower,Dec,1,0.343319277181469,left,0,up,3,5,983.5226812,1002.2080459
5,12619,ses2,lowSalienceAcc,breath,Low,Faster,Acc,2,0.267016597130902,right,1,right,3,5,1009.1323458,1022.9459949
5,12619,ses2,highSalienceAcc,breath,High,Faster,Acc,3,0.267016597130902,right,0,up,3,5,1027.4647833,1041.3436831
5,12619,ses2,highSalienceDec,breath,High,Slower,Dec,4,0.343319277181469,left,1,left,3,5,1053.4281638,1072.2132859
5,12619,ses2,highSalienceAcc,breath,High,Faster,Acc,5,0.267016597130902,right,1,right,3,5,1086.3413762,1100.2209843
5,12619,ses2,highSalienceDec,breath,High,Slower,Dec,6,0.343319277181469,left,1,left,2,5,1103.8799944,1122.6657041
5,12619,ses2,lowSalienceAcc,breath,Low,Faster,Acc,7,0.267016597130902,right,1,right,2,5,1132.1757158,1145.9896765
5,12943,ses1,highSalienceAcc,visual,High,Faster,Acc,0,0.50482982379927,right,1,right,5,5,1111.5381532,1123.5193342
5,12943,ses1,lowSalienceAcc,visual,Low,Faster,Acc,1,0.50482982379927,right,1,right,5,6,1129.1515875,1140.8403102
5,12943,ses1,highSalienceDec,visual,High,Slower,Dec,2,0.909415159742983,left,1,left,5,6,1146.0960254,1169.3862313
5,12943,ses1,highSalienceAcc,visual,High,Faster,Acc,3,0.50482982379927,right,1,right,5,5,1174.188129,1186.1657973
5,12943,ses1,lowSalienceDec,visual,Low,Slower,Dec,4,0.909415159742983,left,0,right,5,6,1190.3211341,1213.1099409
5,12943,ses1,lowSalienceDec,visual,Low,Slower,Dec,5,0.909415159742983,left,0,right,5,6,1221.4462704,1244.2450373
5,12943,ses1,lowSalienceAcc,visual,Low,Faster,Acc,6,0.50482982379927,right,1,right,5,5,1249.3478605,1261.0253621
5,12943,ses1,highSalienceDec,visual,High,Slower,Dec,7,0.909415159742983,left,0,right,5,4,1267.8733422,1291.1767128
5,12952,ses1,highSalienceDec,visual,High,Slower,Dec,0,0.246478383578488,left,1,left,5,6,801.088480000035,819.074127400061
5,12952,ses1,highSalienceAcc,visual,High,Faster,Acc,1,0.301800341325594,right,1,right,5,4,821.981425500009,835.607605700032
5,12952,ses1,lowSalienceDec,visual,Low,Slower,Dec,2,0.246478383578488,left,0,up,5,4,837.727710300009,855.67786549998
5,12952,ses1,lowSalienceDec,visual,Low,Slower,Dec,3,0.246478383578488,left,1,left,5,4,858.632122499985,876.582355299965
5,12952,ses1,highSalienceAcc,visual,High,Faster,Acc,4,0.301800341325594,right,1,right,5,5,878.019605700043,891.631109200069
5,12952,ses1,lowSalienceAcc,visual,Low,Faster,Acc,5,0.301800341325594,right,1,right,5,4,894.819012699998,908.331015000003
5,12952,ses1,highSalienceDec,visual,High,Slower,Dec,6,0.246478383578488,left,1,left,5,4,911.086493700044,929.068638900062
5,12952,ses1,lowSalienceAcc,visual,Low,Faster,Acc,7,0.301800341325594,right,1,right,6,5,931.238968500053,944.751251499983
5,12952,ses2,highSalienceDec,breath,High,Slower,Dec,0,0.274411036174971,left,1,left,5,5,700.694544999977,718.916060299962
5,12952,ses2,lowSalienceDec,breath,Low,Slower,Dec,1,0.274411036174971,left,0,up,5,5,720.468227899983,738.618786999956
5,12952,ses2,highSalienceDec,breath,High,Slower,Dec,2,0.274411036174971,left,0,up,5,4,740.038035599981,758.255119799986
5,12952,ses2,highSalienceAcc,breath,High,Faster,Acc,3,0.336149025725419,right,1,right,1,6,759.541179300053,772.886826699949
5,12952,ses2,highSalienceAcc,breath,High,Faster,Acc,4,0.336149025725419,right,1,right,2,6,774.612993899966,787.972258700058
5,12952,ses2,lowSalienceAcc,breath,Low,Faster,Acc,5,0.336149025725419,right,0,up,5,4,789.788290500059,803.017151799984
5,12952,ses2,lowSalienceDec,breath,Low,Slower,Dec,6,0.274411036174971,left,1,left,3,4,804.453040100052,822.603940599947
5,12952,ses2,lowSalienceAcc,breath,Low,Faster,Acc,7,0.336149025725419,right,1,right,4,4,824.997130700038,838.239413999952
5,12958,ses1,highSalienceAcc,visual,High,Faster,Acc,0,0.403743203672361,right,1,right,5,4,990.295725,1003.0768918
5,12958,ses1,lowSalienceAcc,visual,Low,Faster,Acc,1,0.403743203672361,right,1,right,5,4,1012.7424067,1025.3494246
5,12958,ses1,lowSalienceAcc,visual,Low,Faster,Acc,2,0.403743203672361,right,0,up,5,1,1029.1401361,1041.750052
5,12958,ses1,highSalienceAcc,visual,High,Faster,Acc,3,0.403743203672361,right,1,right,5,5,1046.5251084,1059.318165
5,12958,ses1,lowSalienceDec,visual,Low,Slower,Dec,4,0.348930860698613,left,0,up,5,5,1063.0439231,1081.7743046
5,12958,ses1,highSalienceDec,visual,High,Slower,Dec,5,0.348930860698613,left,0,up,5,5,1086.0528364,1104.8816243
5,12958,ses1,lowSalienceDec,visual,Low,Slower,Dec,6,0.348930860698613,left,1,left,5,5,1110.0264783,1128.7563567
5,12958,ses1,highSalienceDec,visual,High,Slower,Dec,7,0.348930860698613,left,1,left,5,5,1133.9985687,1152.8311318
5,12958,ses2,lowSalienceAcc,breath,Low,Faster,Acc,0,0.468179408230946,right,0,up,6,5,873.9325409,885.9618605
5,12958,ses2,highSalienceAcc,breath,High,Faster,Acc,1,0.468179408230946,right,1,right,6,3,890.6061289,902.8838788
5,12958,ses2,highSalienceDec,breath,High,Slower,Dec,2,0.793314296491805,left,1,left,6,4,907.5075581,929.8618312
5,12958,ses2,lowSalienceDec,breath,Low,Slower,Dec,3,0.793314296491805,left,1,left,6,6,933.6156708,955.5836159
5,12958,ses2,lowSalienceDec,breath,Low,Slower,Dec,4,0.793314296491805,left,1,left,3,3,961.1112197,983.0665087
5,12958,ses2,highSalienceAcc,breath,High,Faster,Acc,5,0.468179408230946,right,1,right,6,4,987.8581625,1000.1342606
5,12958,ses2,highSalienceDec,breath,High,Slower,Dec,6,0.793314296491805,left,1,left,6,3,1005.5713979,1027.9246024
5,12958,ses2,lowSalienceAcc,breath,Low,Faster,Acc,7,0.468179408230946,right,0,up,6,3,1031.7654274,1043.8075793
5,12964,ses1,lowSalienceAcc,breath,Low,Faster,Acc,0,0.533663946704005,right,1,right,3,4,955.874990599928,967.274096600013
5,12964,ses1,highSalienceDec,breath,High,Slower,Dec,1,0.63925151712837,left,1,left,3,4,970.365920700016,991.532249999931
5,12964,ses1,highSalienceDec,breath,High,Slower,Dec,2,0.63925151712837,left,0,right,3,4,994.090594299952,1015.24026749993
5,12964,ses1,highSalienceAcc,breath,High,Faster,Acc,3,0.533663946704005,right,1,right,3,4,1018.26224750001,1030.02213910001
5,12964,ses1,lowSalienceAcc,breath,Low,Faster,Acc,4,0.533663946704005,right,1,right,3,4,1032.87942519994,1044.2854395
5,12964,ses1,lowSalienceDec,breath,Low,Slower,Dec,5,0.63925151712837,left,1,left,3,4,1046.41115619999,1067.29375149996
5,12964,ses1,highSalienceAcc,breath,High,Faster,Acc,6,0.533663946704005,right,0,left,3,3,1069.78557840001,1081.5418782999
5,12964,ses1,lowSalienceDec,breath,Low,Slower,Dec,7,0.63925151712837,left,0,right,3,4,1089.68670089997,1110.55405969999
5,12964,ses2,lowSalienceAcc,breath,Low,Faster,Acc,0,0.436808339460438,right,1,right,3,5,842.289877899922,854.611097999965
5,12964,ses2,highSalienceDec,breath,High,Slower,Dec,1,0.701616885553573,left,1,left,3,5,856.53353799996,878.202330600005
5,12964,ses2,highSalienceAcc,breath,High,Faster,Acc,2,0.436808339460438,right,0,up,3,4,880.577041499899,893.121264499961
5,12964,ses2,highSalienceAcc,breath,High,Faster,Acc,3,0.436808339460438,right,1,right,3,4,897.408867299906,909.950825599954
5,12964,ses2,lowSalienceDec,breath,Low,Slower,Dec,4,0.701616885553573,left,1,left,3,4,912.591155999922,933.909673499991
5,12964,ses2,highSalienceDec,breath,High,Slower,Dec,5,0.701616885553573,left,1,left,3,4,936.417100199964,958.038573700003
5,12964,ses2,lowSalienceAcc,breath,Low,Faster,Acc,6,0.436808339460438,right,1,right,3,3,960.339763899916,972.683341900003
5,12964,ses2,lowSalienceDec,breath,Low,Slower,Dec,7,0.701616885553573,left,1,left,3,4,976.256900599925,997.5753272
5,12970,ses1,highSalienceDec,breath,High,Slower,Dec,0,0.319703895337209,left,1,left,2,3,828.844920000061,847.432231100043
5,12970,ses1,lowSalienceDec,breath,Low,Slower,Dec,1,0.319703895337209,left,0,up,2,4,850.206139200134,868.720994299976
5,12970,ses1,lowSalienceAcc,breath,Low,Faster,Acc,2,0.334092040912917,right,1,right,2,5,871.345300500048,884.585976600181
5,12970,ses1,highSalienceDec,breath,High,Slower,Dec,3,0.319703895337209,left,1,left,2,5,886.694418500178,905.291976600187
5,12970,ses1,highSalienceAcc,breath,High,Faster,Acc,4,0.334092040912917,right,1,right,2,5,907.747432600008,921.091300999979
5,12970,ses1,highSalienceAcc,breath,High,Faster,Acc,5,0.334092040912917,right,1,right,2,5,924.399676400004,937.757250300143
5,12970,ses1,lowSalienceAcc,breath,Low,Faster,Acc,6,0.334092040912917,right,1,right,2,3,939.91707350011,953.157914499985
5,12970,ses1,lowSalienceDec,breath,Low,Slower,Dec,7,0.319703895337209,left,1,left,2,3,955.934890300035,974.450098500121
5,12970,ses2,lowSalienceAcc,breath,Low,Faster,Acc,0,0.137098306009036,right,0,up,1,1,770.559298699955,785.47551020002
5,12970,ses2,highSalienceAcc,breath,High,Faster,Acc,1,0.137098306009036,right,0,up,1,1,787.781027799938,802.709747300018
5,12970,ses2,highSalienceDec,breath,High,Slower,Dec,2,0.123869772732987,left,0,up,1,1,804.531008499907,821.561286399839
5,12970,ses2,lowSalienceAcc,breath,Low,Faster,Acc,3,0.137098306009036,right,0,up,1,1,823.216727299849,838.145030200016
5,12970,ses2,lowSalienceDec,breath,Low,Slower,Dec,4,0.123869772732987,left,0,up,1,1,839.870269399835,856.885909699835
5,12970,ses2,highSalienceDec,breath,High,Slower,Dec,5,0.123869772732987,left,0,up,1,1,859.008268899983,876.039161199937
5,12970,ses2,highSalienceAcc,breath,High,Faster,Acc,6,0.137098306009036,right,0,up,1,1,878.277534499997,893.190328099998
5,12970,ses2,lowSalienceDec,breath,Low,Slower,Dec,7,0.123869772732987,left,0,up,1,1,895.627965899883,912.643811299931
5,12982,ses1,highSalienceAcc,breath,High,Faster,Acc,0,0.417157460676966,right,0,up,1,1,896.987883600057,909.668464099988
5,12982,ses1,lowSalienceAcc,breath,Low,Faster,Acc,1,0.417157460676966,right,1,right,1,6,913.275891200057,925.784791500075
5,12982,ses1,lowSalienceDec,breath,Low,Slower,Dec,2,0.571382851649622,left,1,left,3,3,929.662110000034,950.043314500013
5,12982,ses1,lowSalienceDec,breath,Low,Slower,Dec,3,0.571382851649622,left,1,left,1,6,954.567688000039,974.935900700046
5,12982,ses1,highSalienceDec,breath,High,Slower,Dec,4,0.571382851649622,left,1,left,1,1,978.02533069998,998.610011700075
5,12982,ses1,highSalienceAcc,breath,High,Faster,Acc,5,0.417157460676966,right,1,right,1,6,1004.85338280001,1017.54644559999
5,12982,ses1,lowSalienceAcc,breath,Low,Faster,Acc,6,0.417157460676966,right,0,up,1,6,1020.29070570006,1032.80031060008
5,12982,ses1,highSalienceDec,breath,High,Slower,Dec,7,0.571382851649622,left,1,left,1,1,1038.83815800003,1059.43965890002
5,12985,ses1,lowSalienceDec,breath,Low,Slower,Dec,0,0.345315606588005,left,1,left,3,2,962.437400599942,981.149447300006
5,12985,ses1,highSalienceDec,breath,High,Slower,Dec,1,0.345315606588005,left,1,left,2,4,986.970521099982,1005.75349229993
5,12985,ses1,highSalienceDec,breath,High,Slower,Dec,2,0.345315606588005,left,1,left,3,5,1011.62969169999,1030.42867940001
5,12985,ses1,lowSalienceAcc,breath,Low,Faster,Acc,3,0.210470835862862,right,1,right,3,5,1033.91941229999,1048.23046639992
5,12985,ses1,lowSalienceDec,breath,Low,Slower,Dec,4,0.345315606588005,left,0,up,3,3,1066.04082719993,1084.75647209992
5,12985,ses1,lowSalienceAcc,breath,Low,Faster,Acc,5,0.210470835862862,right,1,right,3,5,1088.94260139996,1103.25392679998
5,12985,ses1,highSalienceAcc,breath,High,Faster,Acc,6,0.210470835862862,right,1,right,3,4,1107.69546039996,1122.0565676
5,12985,ses1,highSalienceAcc,breath,High,Faster,Acc,7,0.210470835862862,right,1,right,3,4,1127.40315459995,1141.74844939995
5,12985,ses2,lowSalienceAcc,breath,Low,Faster,Acc,0,0.281223884917614,right,1,right,3,4,793.538107400062,807.242061800091
5,12985,ses2,highSalienceAcc,breath,High,Faster,Acc,1,0.281223884917614,right,1,right,3,2,809.451101000072,823.230132300057
5,12985,ses2,lowSalienceDec,breath,Low,Slower,Dec,2,0.165278729221825,left,1,left,2,4,825.414525600034,842.762251600041
5,12985,ses2,lowSalienceDec,breath,Low,Slower,Dec,3,0.165278729221825,left,0,up,3,2,845.535026400001,862.86610860005
5,12985,ses2,highSalienceDec,breath,High,Slower,Dec,4,0.165278729221825,left,1,left,3,4,865.872617900022,883.237273200066
5,12985,ses2,lowSalienceAcc,breath,Low,Faster,Acc,5,0.281223884917614,right,1,right,2,4,886.665541500086,900.359782200074
5,12985,ses2,highSalienceAcc,breath,High,Faster,Acc,6,0.281223884917614,right,1,right,3,5,903.529995799996,917.310573499999
5,12985,ses2,highSalienceDec,breath,High,Slower,Dec,7,0.165278729221825,left,1,left,3,3,921.646612700075,938.994856800069
5,12994,ses1,lowSalienceAcc,breath,Low,Faster,Acc,0,0.301471558395981,right,0,up,1,4,951.072671100032,964.590977400076
5,12994,ses1,highSalienceDec,breath,High,Slower,Dec,1,0.395544856093795,left,1,left,1,5,969.13343330007,988.33210970019
5,12994,ses1,highSalienceAcc,breath,High,Faster,Acc,2,0.301471558395981,right,1,right,1,4,993.173809900181,1006.80113320006
5,12994,ses1,highSalienceDec,breath,High,Slower,Dec,3,0.395544856093795,left,0,up,1,2,1009.93993880018,1029.14066410018
5,12994,ses1,highSalienceAcc,breath,High,Faster,Acc,4,0.301471558395981,right,1,right,1,4,1033.46390830004,1047.07610180019
5,12994,ses1,lowSalienceDec,breath,Low,Slower,Dec,5,0.395544856093795,left,1,left,1,4,1050.64986140002,1069.73281650012
5,12994,ses1,lowSalienceDec,breath,Low,Slower,Dec,6,0.395544856093795,left,0,up,1,4,1075.96330400021,1095.04567060014
5,12994,ses1,lowSalienceAcc,breath,Low,Faster,Acc,7,0.301471558395981,right,1,right,1,4,1101.55467380001,1115.0792973002
5,12994,ses2,highSalienceAcc,breath,High,Faster,Acc,0,0.155950755730634,right,0,up,1,4,843.40094610001,858.19224289991
5,12994,ses2,highSalienceDec,breath,High,Slower,Dec,1,0.548170707393334,left,1,left,1,2,861.747151799966,882.167025299976
5,12994,ses2,highSalienceDec,breath,High,Slower,Dec,2,0.548170707393334,left,0,up,1,4,885.923039299902,906.341882399982
5,12994,ses2,lowSalienceDec,breath,Low,Slower,Dec,3,0.548170707393334,left,1,left,1,3,909.378091299906,929.578908500029
5,12994,ses2,lowSalienceDec,breath,Low,Slower,Dec,4,0.548170707393334,left,1,left,1,4,933.703196599847,953.902615000028
5,12994,ses2,highSalienceAcc,breath,High,Faster,Acc,5,0.155950755730634,right,1,right,1,6,958.297367299907,973.077372999862
5,12994,ses2,lowSalienceAcc,breath,Low,Faster,Acc,6,0.155950755730634,right,1,right,1,4,976.299416400027,991.062714800006
5,12994,ses2,lowSalienceAcc,breath,Low,Faster,Acc,7,0.155950755730634,right,1,right,1,5,994.651366799837,1009.41507810005
5,13012,ses1,highSalienceDec,visual,High,Slower,Dec,0,0.313826871974519,left,0,up,2,3,934.871127300023,953.410949499987
5,13012,ses1,lowSalienceAcc,visual,Low,Faster,Acc,1,0.315841231985555,right,1,right,2,3,959.33855049999,972.74804570002
5,13012,ses1,highSalienceAcc,visual,High,Faster,Acc,2,0.315841231985555,right,1,right,2,3,976.921905399999,990.43247629999
5,13012,ses1,lowSalienceAcc,visual,Low,Faster,Acc,3,0.315841231985555,right,1,right,3,3,995.375962599996,1008.80182300002
5,13012,ses1,highSalienceAcc,visual,High,Faster,Acc,4,0.315841231985555,right,1,right,2,2,1015.71201349999,1029.22293530003
5,13012,ses1,lowSalienceDec,visual,Low,Slower,Dec,5,0.313826871974519,left,1,left,2,3,1034.2970046,1052.74712300004
5,13012,ses1,lowSalienceDec,visual,Low,Slower,Dec,6,0.313826871974519,left,0,up,2,3,1057.35548580001,1075.8209243
5,13012,ses1,highSalienceDec,visual,High,Slower,Dec,7,0.313826871974519,left,1,left,2,2,1079.87745670002,1098.41090040002
5,13012,ses2,highSalienceDec,breath,High,Slower,Dec,0,0.435902796485643,left,0,up,3,3,844.499370699981,864.021038399951
5,13012,ses2,lowSalienceDec,breath,Low,Slower,Dec,1,0.435902796485643,left,0,up,2,3,867.982743899978,887.366499299998
5,13012,ses2,lowSalienceAcc,breath,Low,Faster,Acc,2,0.255467115866791,right,1,right,2,2,889.584340499947,903.49641189997806
5,13012,ses2,lowSalienceAcc,breath,Low,Faster,Acc,3,0.255467115866791,right,0,up,2,2,907.539528299996,921.451898799976
5,13012,ses2,highSalienceAcc,breath,High,Faster,Acc,4,0.255467115866791,right,1,right,2,3,924.057538099994,938.035591199994
5,13012,ses2,highSalienceAcc,breath,High,Faster,Acc,5,0.255467115866791,right,0,up,2,2,941.070887099952,955.048288899998
5,13012,ses2,highSalienceDec,breath,High,Slower,Dec,6,0.435902796485643,left,1,left,2,4,958.689780199958,978.206561499974
5,13012,ses2,lowSalienceDec,breath,Low,Slower,Dec,7,0.435902796485643,left,1,left,2,3,981.833331100002,1001.21749269997
5,13018,ses1,lowSalienceDec,visual,Low,Slower,Dec,0,0.470990513252303,left,1,left,3,4,1044.66629499999,1064.3047672
5,13018,ses1,highSalienceAcc,visual,High,Faster,Acc,1,0.324027162281199,right,1,right,2,5,1074.90454979999,1088.3629067
5,13018,ses1,lowSalienceAcc,visual,Low,Faster,Acc,2,0.324027162281199,right,0,up,3,2,1096.29085419999,1109.63480809999
5,13018,ses1,highSalienceAcc,visual,High,Faster,Acc,3,0.324027162281199,right,1,right,2,5,1118.63049119999,1132.07364569999
5,13018,ses1,highSalienceDec,visual,High,Slower,Dec,4,0.470990513252303,left,1,left,3,5,1137.7161295,1157.49946969999
5,13018,ses1,lowSalienceAcc,visual,Low,Faster,Acc,5,0.324027162281199,right,1,right,3,4,1167.66479319999,1180.99171809999
5,13018,ses1,lowSalienceDec,visual,Low,Slower,Dec,6,0.470990513252303,left,1,left,3,2,1188.15522869999,1207.8025394
5,13018,ses1,highSalienceDec,visual,High,Slower,Dec,7,0.470990513252303,left,1,left,3,4,1212.52735059999,1232.32787489999
5,13018,ses2,lowSalienceAcc,breath,Low,Faster,Acc,0,0.233290800757598,right,0,up,4,4,942.912623099997,957.019063
5,13018,ses2,lowSalienceDec,breath,Low,Slower,Dec,1,0.258533834826224,left,0,up,4,4,962.693043299994,980.727297099991
5,13018,ses2,lowSalienceAcc,breath,Low,Faster,Acc,2,0.233290800757598,right,0,up,3,4,985.447958599994,999.5584141
5,13018,ses2,highSalienceDec,breath,High,Slower,Dec,3,0.258533834826224,left,1,left,3,4,1003.01782559999,1021.10218439999
5,13018,ses2,highSalienceAcc,breath,High,Faster,Acc,4,0.233290800757598,right,1,right,4,4,1024.28769879999,1038.4321527
5,13018,ses2,highSalienceAcc,breath,High,Faster,Acc,5,0.233290800757598,right,1,right,3,2,1043.0578849,1057.21898389999
5,13018,ses2,lowSalienceDec,breath,Low,Slower,Dec,6,0.258533834826224,left,0,up,2,2,1060.6087671,1078.6409713
5,13018,ses2,highSalienceDec,breath,High,Slower,Dec,7,0.258533834826224,left,1,left,2,5,1086.2195697,1104.31639549999
5,13024,ses1,lowSalienceDec,visual,Low,Slower,Dec,0,0.285370561925971,left,1,left,1,4,878.713340300019,896.969204199966
5,13024,ses1,lowSalienceDec,visual,Low,Slower,Dec,1,0.285370561925971,left,0,up,2,3,901.593053100049,919.841758899973
5,13024,ses1,lowSalienceAcc,visual,Low,Faster,Acc,2,0.277512098487594,right,1,right,1,5,925.353852999979,939.112766199978
5,13024,ses1,highSalienceAcc,visual,High,Faster,Acc,3,0.277512098487594,right,1,right,2,6,943.288961500046,957.113220899948
5,13024,ses1,highSalienceDec,visual,High,Slower,Dec,4,0.285370561925971,left,1,left,1,5,961.459396900027,979.791383399977
5,13024,ses1,lowSalienceAcc,visual,Low,Faster,Acc,5,0.277512098487594,right,0,up,1,3,982.876614199951,996.622054800042
5,13024,ses1,highSalienceDec,visual,High,Slower,Dec,6,0.285370561925971,left,1,left,2,4,1000.94541499997,1019.27868490003
5,13024,ses1,highSalienceAcc,visual,High,Faster,Acc,7,0.277512098487594,right,1,right,1,5,1023.90461740003,1037.73001249996
5,13024,ses2,lowSalienceAcc,breath,Low,Faster,Acc,0,0.359017779144805,right,1,right,2,3,812.567372000078,825.584210500005
5,13024,ses2,highSalienceAcc,breath,High,Faster,Acc,1,0.359017779144805,right,1,right,2,5,827.825531700044,840.970430999994
5,13024,ses2,highSalienceDec,breath,High,Slower,Dec,2,0.313452439351694,left,1,left,1,3,843.391691200086,861.908356000087
5,13024,ses2,lowSalienceDec,breath,Low,Slower,Dec,3,0.313452439351694,left,1,left,2,5,867.699257800006,886.150256499997
5,13024,ses2,lowSalienceAcc,breath,Low,Faster,Acc,4,0.359017779144805,right,1,right,2,4,887.951545700082,900.96057450003
5,13024,ses2,lowSalienceDec,breath,Low,Slower,Dec,5,0.313452439351694,left,1,left,2,4,903.169448300032,921.620225800085
5,13024,ses2,highSalienceDec,breath,High,Slower,Dec,6,0.313452439351694,left,1,left,2,5,923.35577740008,941.887404000037
5,13024,ses2,highSalienceAcc,breath,High,Faster,Acc,7,0.359017779144805,right,1,right,2,5,943.494305600063,956.639873899985
5,13030,ses1,lowSalienceAcc,breath,Low,Faster,Acc,0,0.32718359045663,right,0,up,3,4,866.106865100001,879.4231212
5,13030,ses1,highSalienceAcc,breath,High,Faster,Acc,1,0.32718359045663,right,1,right,4,4,884.115124100001,897.5252057
5,13030,ses1,highSalienceDec,breath,High,Slower,Dec,2,0.39982357221477,left,1,left,4,4,901.252531100001,920.483497200001
5,13030,ses1,lowSalienceAcc,breath,Low,Faster,Acc,3,0.32718359045663,right,0,up,3,5,924.128607300001,937.454534500001
5,13030,ses1,highSalienceDec,breath,High,Slower,Dec,4,0.39982357221477,left,1,left,3,3,940.425320800001,959.6574267
5,13030,ses1,lowSalienceDec,breath,Low,Slower,Dec,5,0.39982357221477,left,0,up,3,4,962.0657018,981.196120099999
5,13030,ses1,lowSalienceDec,breath,Low,Slower,Dec,6,0.39982357221477,left,0,up,3,4,983.7363102,1002.8671904
5,13030,ses1,highSalienceAcc,breath,High,Faster,Acc,7,0.32718359045663,right,1,right,4,5,1005.9915897,1019.4011077
5,13030,ses2,highSalienceAcc,breath,High,Faster,Acc,0,0.495452611311063,right,1,right,3,3,888.2717032,900.3265921
5,13030,ses2,lowSalienceAcc,breath,Low,Faster,Acc,1,0.495452611311063,right,1,right,3,3,901.260560999999,913.0196801
5,13030,ses2,highSalienceAcc,breath,High,Faster,Acc,2,0.495452611311063,right,1,right,4,5,914.4935193,926.537226299999
5,13030,ses2,lowSalienceAcc,breath,Low,Faster,Acc,3,0.495452611311063,right,1,right,4,4,929.909482900001,941.6529455
5,13030,ses2,lowSalienceDec,breath,Low,Slower,Dec,4,0.387489962964715,left,1,left,4,5,943.7547359,962.7875289
5,13030,ses2,highSalienceDec,breath,High,Slower,Dec,5,0.387489962964715,left,1,left,3,3,966.8307597,985.9485377
5,13030,ses2,lowSalienceDec,breath,Low,Slower,Dec,6,0.387489962964715,left,0,up,3,4,988.1498643,1007.18209
5,13030,ses2,highSalienceDec,breath,High,Slower,Dec,7,0.387489962964715,left,1,left,3,4,1009.4578471,1028.5757127
5,13036,ses1,lowSalienceAcc,visual,Low,Faster,Acc,0,0.231270145988143,right,1,right,3,6,999.566181099974,1013.70540849981
5,13036,ses1,lowSalienceDec,visual,Low,Slower,Dec,1,0.391199994397517,left,1,left,3,4,1018.44665369997,1037.47976469994
5,13036,ses1,highSalienceDec,visual,High,Slower,Dec,2,0.391199994397517,left,1,left,3,2,1041.5552242999,1060.72031219979
5,13036,ses1,lowSalienceAcc,visual,Low,Faster,Acc,3,0.231270145988143,right,1,right,2,6,1065.54525149986,1079.68962039985
5,13036,ses1,lowSalienceDec,visual,Low,Slower,Dec,4,0.391199994397517,left,0,up,2,2,1083.13025569986,1102.17954569985
5,13036,ses1,highSalienceDec,visual,High,Slower,Dec,5,0.391199994397517,left,0,up,2,3,1105.88692929992,1125.05337999994
5,13036,ses1,highSalienceAcc,visual,High,Faster,Acc,6,0.231270145988143,right,1,right,2,6,1131.34806639981,1145.54132959992
5,13036,ses1,highSalienceAcc,visual,High,Faster,Acc,7,0.231270145988143,right,1,right,2,6,1149.14805099997,1163.32609519991
5,13036,ses2,lowSalienceAcc,breath,Low,Faster,Acc,0,0.217365411164211,right,0,up,3,3,899.179234000156,913.421182899969
5,13036,ses2,highSalienceDec,breath,High,Slower,Dec,1,0.190470476276043,left,0,up,2,4,921.162440299988,938.726748200133
5,13036,ses2,highSalienceDec,breath,High,Slower,Dec,2,0.190470476276043,left,0,up,3,4,943.534211799968,961.083542500157
5,13036,ses2,highSalienceAcc,breath,High,Faster,Acc,3,0.217365411164211,right,1,right,3,6,968.476742499974,982.772551300004
5,13036,ses2,lowSalienceDec,breath,Low,Slower,Dec,4,0.190470476276043,left,1,left,3,6,986.731246200157,1004.26470419997
5,13036,ses2,lowSalienceDec,breath,Low,Slower,Dec,5,0.190470476276043,left,1,left,3,3,1008.8713463,1026.40443330002
5,13036,ses2,lowSalienceAcc,breath,Low,Faster,Acc,6,0.217365411164211,right,1,right,3,3,1030.37385089998,1044.60261279996
5,13036,ses2,highSalienceAcc,breath,High,Faster,Acc,7,0.217365411164211,right,0,up,3,5,1048.89672440011,1063.17566119996
5,13048,ses1,lowSalienceAcc,breath,Low,Faster,Acc,0,0.298323225443062,right,0,up,5,5,779.784157200018,793.35101340001
5,13048,ses1,highSalienceAcc,breath,High,Faster,Acc,1,0.298323225443062,right,1,right,6,6,795.926711400039,809.572349100024
5,13048,ses1,highSalienceAcc,breath,High,Faster,Acc,2,0.298323225443062,right,1,right,5,5,812.171706599998,825.817661600071
5,13048,ses1,lowSalienceAcc,breath,Low,Faster,Acc,3,0.298323225443062,right,0,up,5,5,828.676882500062,842.239348200033
5,13048,ses1,highSalienceDec,breath,High,Slower,Dec,4,0.321858584605477,left,1,left,5,5,845.243989800103,863.828260200098
5,13048,ses1,lowSalienceDec,breath,Low,Slower,Dec,5,0.321858584605477,left,1,left,5,5,866.114816100104,884.63304320001
5,13048,ses1,lowSalienceDec,breath,Low,Slower,Dec,6,0.321858584605477,left,0,up,5,5,887.353588400059,905.871488500037
5,13048,ses1,highSalienceDec,breath,High,Slower,Dec,7,0.321858584605477,left,1,left,5,5,910.861102399998,929.445807200042
5,13048,ses2,lowSalienceDec,breath,Low,Slower,Dec,0,0.398088467320573,left,1,left,5,5,807.537953099934,826.6428877
5,13048,ses2,highSalienceDec,breath,High,Slower,Dec,1,0.398088467320573,left,0,up,5,5,828.700368399965,847.919531499967
5,13048,ses2,highSalienceDec,breath,High,Slower,Dec,2,0.398088467320573,left,0,up,5,5,849.704996799934,868.924650499946
5,13048,ses2,lowSalienceAcc,breath,Low,Faster,Acc,3,0.310115699427663,right,0,up,5,5,870.593353600008,884.040209700004
5,13048,ses2,lowSalienceAcc,breath,Low,Faster,Acc,4,0.310115699427663,right,1,right,5,5,887.644580299966,901.091095400043
5,13048,ses2,highSalienceAcc,breath,High,Faster,Acc,5,0.310115699427663,right,1,right,5,5,905.162245000014,918.709214700037
5,13048,ses2,highSalienceAcc,breath,High,Faster,Acc,6,0.310115699427663,right,1,right,5,5,920.858051199932,934.403574800002
5,13048,ses2,lowSalienceDec,breath,Low,Slower,Dec,7,0.398088467320573,left,1,left,5,5,937.295372299966,956.397812800016
5,13051,ses1,highSalienceDec,visual,High,Slower,Dec,0,0.266963592509039,left,1,left,2,4,1070.38231350001,1088.5364014
5,13051,ses1,highSalienceDec,visual,High,Slower,Dec,1,0.266963592509039,left,0,up,3,4,1095.98122160001,1114.1299776
5,13051,ses1,lowSalienceDec,visual,Low,Slower,Dec,2,0.266963592509039,left,0,up,2,3,1122.02458420001,1140.12359910001
5,13051,ses1,lowSalienceAcc,visual,Low,Faster,Acc,3,0.336825270066915,right,1,right,4,6,1144.97034380001,1158.2137024
5,13051,ses1,highSalienceAcc,visual,High,Faster,Acc,4,0.336825270066915,right,0,up,1,1,1164.31888329999,1177.6622741
5,13051,ses1,highSalienceAcc,visual,High,Faster,Acc,5,0.336825270066915,right,1,right,1,2,1192.764487,1206.1084948
5,13051,ses1,lowSalienceDec,visual,Low,Slower,Dec,6,0.266963592509039,left,1,left,1,3,1211.06923,1229.1819506
5,13051,ses1,lowSalienceAcc,visual,Low,Faster,Acc,7,0.336825270066915,right,1,right,3,6,1236.075556,1249.2860904
5,13051,ses2,lowSalienceAcc,breath,Low,Faster,Acc,0,0.338211167725476,right,1,right,4,5,944.809504799996,958.008788399995
5,13051,ses2,lowSalienceAcc,breath,Low,Faster,Acc,1,0.338211167725476,right,0,up,3,3,963.086137499995,976.2823469
5,13051,ses2,lowSalienceDec,breath,Low,Slower,Dec,2,0.306795996589585,left,1,left,3,3,979.669623599999,998.088292899993
5,13051,ses2,highSalienceDec,breath,High,Slower,Dec,3,0.306795996589585,left,1,left,3,6,1000.7228206,1019.22205149999
5,13051,ses2,lowSalienceDec,breath,Low,Slower,Dec,4,0.306795996589585,left,0,up,3,3,1021.9281491,1040.36033169999
5,13051,ses2,highSalienceAcc,breath,High,Faster,Acc,5,0.338211167725476,right,1,right,3,5,1041.2812764,1054.6084236
5,13051,ses2,highSalienceDec,breath,High,Slower,Dec,6,0.306795996589585,left,0,up,3,3,1056.582272,1075.06761909999
5,13051,ses2,highSalienceAcc,breath,High,Faster,Acc,7,0.338211167725476,right,1,right,3,5,1076.7560334,1090.083092
5,13081,ses1,highSalienceDec,breath,High,Slower,Dec,0,0.736329300985045,left,1,left,4,4,1087.15670599999,1109.08257519999
5,13081,ses1,lowSalienceAcc,breath,Low,Faster,Acc,1,0.219734709746922,right,1,right,4,5,1118.3314012,1132.56178980001
5,13081,ses1,lowSalienceDec,breath,Low,Slower,Dec,2,0.736329300985045,left,0,up,3,5,1136.9675463,1158.5337235
5,13081,ses1,lowSalienceAcc,breath,Low,Faster,Acc,3,0.219734709746922,right,1,right,4,5,1164.49584459999,1178.7260489
5,13081,ses1,highSalienceDec,breath,High,Slower,Dec,4,0.736329300985045,left,0,up,3,4,1183.1442576,1205.0649653
5,13081,ses1,lowSalienceDec,breath,Low,Slower,Dec,5,0.736329300985045,left,0,up,5,4,1211.5941517,1233.1657515
5,13081,ses1,highSalienceAcc,breath,High,Faster,Acc,6,0.219734709746922,right,1,right,3,4,1237.88826940001,1252.1683936
5,13081,ses1,highSalienceAcc,breath,High,Faster,Acc,7,0.219734709746922,right,1,right,3,3,1255.101885,1269.3813847
5,13081,ses2,lowSalienceAcc,breath,Low,Faster,Acc,0,0.391433463845243,right,0,up,3,3,820.529620600006,833.256856299995
5,13081,ses2,highSalienceDec,breath,High,Slower,Dec,1,0.61035878439759,left,0,up,4,3,835.951010300007,856.869543199995
5,13081,ses2,lowSalienceDec,breath,Low,Slower,Dec,2,0.61035878439759,left,1,left,4,3,862.261033100003,882.929738799998
5,13081,ses2,highSalienceDec,breath,High,Slower,Dec,3,0.61035878439759,left,0,up,1,4,885.482594700006,906.403945600003
5,13081,ses2,lowSalienceDec,breath,Low,Slower,Dec,4,0.61035878439759,left,0,up,1,5,910.006138600002,930.690677999999
5,13081,ses2,lowSalienceAcc,breath,Low,Faster,Acc,5,0.391433463845243,right,1,right,6,5,933.335200000001,946.078237299997
5,13081,ses2,highSalienceAcc,breath,High,Faster,Acc,6,0.391433463845243,right,0,left,1,2,949.7644401,962.657329000009
5,13081,ses2,highSalienceAcc,breath,High,Faster,Acc,7,0.391433463845243,right,0,left,3,3,967.418648999999,980.297024900006
5,13183,ses1,highSalienceDec,breath,High,Slower,Dec,0,0.501761869566533,left,0,up,4,4,972.582614499988,992.641254899994
5,13183,ses1,lowSalienceAcc,breath,Low,Faster,Acc,1,0.260058877030857,right,1,right,4,3,999.735074299999,1013.6129416
5,13183,ses1,highSalienceAcc,breath,High,Faster,Acc,2,0.260058877030857,right,1,right,4,4,1021.009288,1034.9679358
5,13183,ses1,lowSalienceDec,breath,Low,Slower,Dec,3,0.501761869566533,left,1,left,3,5,1039.5986418,1059.48176900001
5,13183,ses1,lowSalienceDec,breath,Low,Slower,Dec,4,0.501761869566533,left,1,left,3,4,1062.97416009998,1082.85554220001
5,13183,ses1,highSalienceAcc,breath,High,Faster,Acc,5,0.260058877030857,right,1,right,4,5,1099.60740350001,1113.56603630001
5,13183,ses1,highSalienceDec,breath,High,Slower,Dec,6,0.501761869566533,left,1,left,3,5,1118.19081619999,1138.2579993
5,13183,ses1,lowSalienceAcc,breath,Low,Faster,Acc,7,0.260058877030857,right,0,up,3,4,1141.53418039999,1155.42582820001
5,13183,ses2,lowSalienceAcc,breath,Low,Faster,Acc,0,0.166337116469361,right,1,right,3,4,950.798481800011,965.473666400008
5,13183,ses2,highSalienceDec,breath,High,Slower,Dec,1,0.569369652204304,left,1,left,3,4,972.613045100006,993.197551599995
5,13183,ses2,highSalienceDec,breath,High,Slower,Dec,2,0.569369652204304,left,1,left,3,3,997.19342190001,1017.79451400001
5,13183,ses2,lowSalienceDec,breath,Low,Slower,Dec,3,0.569369652204304,left,0,up,3,3,1021.32970129998,1041.68105489999
5,13183,ses2,highSalienceAcc,breath,High,Faster,Acc,4,0.166337116469361,right,1,right,3,5,1045.7243303,1060.40498250001
5,13183,ses2,lowSalienceDec,breath,Low,Slower,Dec,5,0.569369652204304,left,0,up,3,3,1064.49564189999,1084.8468614
5,13183,ses2,lowSalienceAcc,breath,Low,Faster,Acc,6,0.166337116469361,right,0,up,3,3,1094.88896099999,1109.55091650001
5,13183,ses2,highSalienceAcc,breath,High,Faster,Acc,7,0.166337116469361,right,1,right,3,3,1113.74169729999,1128.420427
5,13501,ses1,lowSalienceDec,visual,Low,Slower,Dec,0,0.511344849769402,left,1,left,2,4,941.764980399981,961.711288099992
5,13501,ses1,lowSalienceAcc,visual,Low,Faster,Acc,1,0.223501206218817,right,1,right,4,5,964.614027199917,978.825221100007
5,13501,ses1,highSalienceAcc,visual,High,Faster,Acc,2,0.223501206218817,right,1,right,2,5,981.563874099986,995.80853629997
5,13501,ses1,lowSalienceAcc,visual,Low,Faster,Acc,3,0.223501206218817,right,0,up,2,4,998.133205599966,1012.34330589999
5,13501,ses1,highSalienceDec,visual,High,Slower,Dec,4,0.511344849769402,left,1,left,2,4,1014.86986029998,1035.00365329999
5,13501,ses1,highSalienceAcc,visual,High,Faster,Acc,5,0.223501206218817,right,0,up,1,3,1042.46091599995,1056.70469369995
5,13501,ses1,highSalienceDec,visual,High,Slower,Dec,6,0.511344849769402,left,1,left,1,5,1060.3649884999,1080.49561549991
5,13501,ses1,lowSalienceDec,visual,Low,Slower,Dec,7,0.511344849769402,left,0,up,1,4,1084.18596969999,1104.13662060001
5,13501,ses2,lowSalienceAcc,breath,Low,Faster,Acc,0,0.352753753492496,right,1,right,4,5,788.829962000018,801.919346399955
5,13501,ses2,lowSalienceDec,breath,Low,Slower,Dec,1,0.312250763975089,left,1,left,2,5,804.838768000016,823.288141499972
5,13501,ses2,lowSalienceAcc,breath,Low,Faster,Acc,2,0.352753753492496,right,0,up,4,3,825.043198399944,838.120046299999
5,13501,ses2,highSalienceAcc,breath,High,Faster,Acc,3,0.352753753492496,right,1,right,1,2,839.426177200046,852.638766099932
5,13501,ses2,lowSalienceDec,breath,Low,Slower,Dec,4,0.312250763975089,left,1,left,2,4,855.691066100029,874.140339900041
5,13501,ses2,highSalienceAcc,breath,High,Faster,Acc,5,0.352753753492496,right,1,right,3,5,876.080757800024,889.29316510004
5,13501,ses2,highSalienceDec,breath,High,Slower,Dec,6,0.312250763975089,left,1,left,5,5,891.396779199946,909.914229799993
5,13501,ses2,highSalienceDec,breath,High,Slower,Dec,7,0.312250763975089,left,1,left,5,5,912.202207800001,930.719200099935
5,13525,ses1,highSalienceDec,visual,High,Slower,Dec,0,0.1322677561668,left,1,left,5,5,835.117906600004,852.202751700068
5,13525,ses1,lowSalienceAcc,visual,Low,Faster,Acc,1,0.187194522512241,right,1,right,4,6,857.711683399975,872.189799299929
5,13525,ses1,highSalienceDec,visual,High,Slower,Dec,2,0.1322677561668,left,0,up,4,5,875.534734599991,892.615822399966
5,13525,ses1,highSalienceAcc,visual,High,Faster,Acc,3,0.187194522512241,right,1,right,4,6,895.586569899926,910.112364599947
5,13525,ses1,lowSalienceDec,visual,Low,Slower,Dec,4,0.1322677561668,left,0,up,4,6,912.368000600021,929.449134399882
5,13525,ses1,lowSalienceAcc,visual,Low,Faster,Acc,5,0.187194522512241,right,1,right,4,6,934.059781600023,948.552134699887
5,13525,ses1,highSalienceAcc,visual,High,Faster,Acc,6,0.187194522512241,right,1,right,4,5,950.257012200076,964.785349800019
5,13525,ses1,lowSalienceDec,visual,Low,Slower,Dec,7,0.1322677561668,left,1,left,4,6,966.960619400023,984.038753000088
5,13525,ses2,highSalienceDec,breath,High,Slower,Dec,0,0.156401073025176,left,1,left,4,6,760.910024299985,778.193518399959
5,13525,ses2,lowSalienceAcc,breath,Low,Faster,Acc,1,0.226020202274234,right,1,right,4,6,780.232383999974,794.426987200044
5,13525,ses2,highSalienceAcc,breath,High,Faster,Acc,2,0.226020202274234,right,1,right,4,6,796.115230900003,810.326834999956
5,13525,ses2,highSalienceAcc,breath,High,Faster,Acc,3,0.226020202274234,right,1,right,4,6,811.884085500147,826.097634700127
5,13525,ses2,lowSalienceAcc,breath,Low,Faster,Acc,4,0.226020202274234,right,1,right,4,5,827.69802469993,841.892570700031
5,13525,ses2,lowSalienceDec,breath,Low,Slower,Dec,5,0.156401073025176,left,1,left,3,6,843.951952500036,861.217355299974
5,13525,ses2,lowSalienceDec,breath,Low,Slower,Dec,6,0.156401073025176,left,1,left,3,4,863.401992999949,880.682627000147
5,13525,ses2,highSalienceDec,breath,High,Slower,Dec,7,0.156401073025176,left,0,up,4,6,883.105094300117,900.403038700111
5,13531,ses1,highSalienceDec,visual,High,Slower,Dec,0,0.212026131930816,left,1,left,4,3,1006.74373410002,1024.47370179999
5,13531,ses1,highSalienceAcc,visual,High,Faster,Acc,1,0.258701904991048,right,1,right,4,5,1041.49965080002,1055.45978390006
5,13531,ses1,lowSalienceAcc,visual,Low,Faster,Acc,2,0.258701904991048,right,1,right,4,4,1058.36823969998,1072.25903650001
5,13531,ses1,lowSalienceDec,visual,Low,Slower,Dec,3,0.212026131930816,left,0,up,4,5,1078.30752460007,1096.00005270005
5,13531,ses1,highSalienceDec,visual,High,Slower,Dec,4,0.212026131930816,left,0,up,4,4,1101.16901740001,1118.8858856
5,13531,ses1,lowSalienceAcc,visual,Low,Faster,Acc,5,0.258701904991048,right,1,right,4,4,1122.70995350007,1136.58734560001
5,13531,ses1,lowSalienceDec,visual,Low,Slower,Dec,6,0.212026131930816,left,1,left,4,4,1140.30027820007,1157.99590069999
5,13531,ses1,highSalienceAcc,visual,High,Faster,Acc,7,0.258701904991048,right,0,up,4,3,1164.49193130003,1178.45026700001
5,13531,ses2,lowSalienceAcc,breath,Low,Faster,Acc,0,0.20462852887995,right,0,up,4,5,1076.94458559994,1091.29491569998
5,13531,ses2,lowSalienceAcc,breath,Low,Faster,Acc,1,0.20462852887995,right,0,up,4,4,1095.65091769991,1109.99776870001
5,13531,ses2,lowSalienceDec,breath,Low,Slower,Dec,2,0.275788709770443,left,1,left,4,3,1112.66810539993,1130.85365219996
5,13531,ses2,highSalienceAcc,breath,High,Faster,Acc,3,0.20462852887995,right,1,right,4,4,1132.25459989998,1146.6343738999
5,13531,ses2,highSalienceDec,breath,High,Slower,Dec,4,0.275788709770443,left,1,left,4,5,1184.64436929999,1202.86160999991
5,13531,ses2,highSalienceDec,breath,High,Slower,Dec,5,0.275788709770443,left,1,left,4,5,1205.77893549995,1223.9968199
5,13531,ses2,lowSalienceDec,breath,Low,Slower,Dec,6,0.275788709770443,left,0,up,4,4,1227.13651340001,1245.33478029992
5,13531,ses2,highSalienceAcc,breath,High,Faster,Acc,7,0.20462852887995,right,1,right,4,5,1255.8795712,1270.26181609998
5,13558,ses1,lowSalienceDec,breath,Low,Slower,Dec,0,0.286673892353926,left,1,left,4,5,895.361892599962,913.624221400009
5,13558,ses1,highSalienceAcc,breath,High,Faster,Acc,1,0.365582064747508,right,1,right,5,5,919.812601499958,932.939575899974
5,13558,ses1,highSalienceAcc,breath,High,Faster,Acc,2,0.365582064747508,right,1,right,5,5,936.800919000059,949.912102999981
5,13558,ses1,lowSalienceDec,breath,Low,Slower,Dec,3,0.286673892353926,left,1,left,5,5,954.121639700024,972.385005500051
5,13558,ses1,highSalienceDec,breath,High,Slower,Dec,4,0.286673892353926,left,1,left,5,6,977.939680100069,996.271605300019
5,13558,ses1,lowSalienceAcc,breath,Low,Faster,Acc,5,0.365582064747508,right,1,right,5,5,1000.21203259996,1013.18868440005
5,13558,ses1,lowSalienceAcc,breath,Low,Faster,Acc,6,0.365582064747508,right,0,up,5,5,1016.92968299997,1029.92286120006
5,13558,ses1,highSalienceDec,breath,High,Slower,Dec,7,0.286673892353926,left,1,left,4,6,1035.04834009998,1053.38020460005
5,13558,ses2,lowSalienceDec,breath,Low,Slower,Dec,0,0.376909096337103,left,1,left,3,3,838.250314899953,857.186756900046
5,13558,ses2,lowSalienceAcc,breath,Low,Faster,Acc,1,0.291447001369163,right,1,right,3,4,863.818106899969,877.412452499964
5,13558,ses2,lowSalienceDec,breath,Low,Slower,Dec,2,0.376909096337103,left,0,up,3,4,881.217334499932,900.152642000001
